trial,word_response_time,stimulus,display_order,target_word,word_in_utterance,utterance_in_exchange,speaker,is_test_utterance,kid,true_display_order,version,ac_rt,correct_key_code,pressed_key_code,passed_ac,subj,utterance10,663,what,3,NA,1,1,MOTHER,FALSE,Thomas,1,u,5993,right,right,TRUE,1,"what happened to your drink of milk, Thomas?"10,202,happened,3,NULL,2,1,MOTHER,FALSE,Thomas,1,u,5993,right,right,TRUE,1,"what happened to your drink of milk, Thomas?"10,189,to,3,NULL,3,1,MOTHER,FALSE,Thomas,1,u,5993,right,right,TRUE,1,"what happened to your drink of milk, Thomas?"10,195,your,3,NULL,4,1,MOTHER,FALSE,Thomas,1,u,5993,right,right,TRUE,1,"what happened to your drink of milk, Thomas?"10,168,drink,3,NULL,5,1,MOTHER,FALSE,Thomas,1,u,5993,right,right,TRUE,1,"what happened to your drink of milk, Thomas?"10,162,of,3,NULL,6,1,MOTHER,FALSE,Thomas,1,u,5993,right,right,TRUE,1,"what happened to your drink of milk, Thomas?"10,186,"milk,",3,NULL,7,1,MOTHER,FALSE,Thomas,1,u,5993,right,right,TRUE,1,"what happened to your drink of milk, Thomas?"10,179,Thomas?,3,NULL,8,1,MOTHER,FALSE,Thomas,1,u,5993,right,right,TRUE,1,"what happened to your drink of milk, Thomas?"10,572,I,3,drinked,1,2,CHILD,TRUE,Thomas,1,u,5993,right,right,TRUE,1,I drinked it all.10,185,drinked,3,drinked,2,2,CHILD,TRUE,Thomas,1,u,5993,right,right,TRUE,1,I drinked it all.10,173,it,3,drinked,3,2,CHILD,TRUE,Thomas,1,u,5993,right,right,TRUE,1,I drinked it all.10,161,all.,3,drinked,4,2,CHILD,TRUE,Thomas,1,u,5993,right,right,TRUE,1,I drinked it all.10,704,I,3,NULL,1,3,MOTHER,FALSE,Thomas,1,u,5993,right,right,TRUE,1,I know but what happened to the bottle?10,191,know,3,NULL,2,3,MOTHER,FALSE,Thomas,1,u,5993,right,right,TRUE,1,I know but what happened to the bottle?10,171,but,3,NULL,3,3,MOTHER,FALSE,Thomas,1,u,5993,right,right,TRUE,1,I know but what happened to the bottle?10,156,what,3,NULL,4,3,MOTHER,FALSE,Thomas,1,u,5993,right,right,TRUE,1,I know but what happened to the bottle?10,146,happened,3,NULL,5,3,MOTHER,FALSE,Thomas,1,u,5993,right,right,TRUE,1,I know but what happened to the bottle?10,326,to,3,NULL,6,3,MOTHER,FALSE,Thomas,1,u,5993,right,right,TRUE,1,I know but what happened to the bottle?10,162,the,3,NULL,7,3,MOTHER,FALSE,Thomas,1,u,5993,right,right,TRUE,1,I know but what happened to the bottle?10,161,bottle?,3,NULL,8,3,MOTHER,FALSE,Thomas,1,u,5993,right,right,TRUE,1,I know but what happened to the bottle?10,514,"okay,",3,NULL,1,4,CHILD,FALSE,Thomas,1,u,5993,right,right,TRUE,1,"okay, I'll get it."10,178,I'll,3,NULL,2,4,CHILD,FALSE,Thomas,1,u,5993,right,right,TRUE,1,"okay, I'll get it."10,150,get,3,NULL,3,4,CHILD,FALSE,Thomas,1,u,5993,right,right,TRUE,1,"okay, I'll get it."10,143,it.,3,NULL,4,4,CHILD,FALSE,Thomas,1,u,5993,right,right,TRUE,1,"okay, I'll get it."10,691,have,3,NULL,1,5,MOTHER,FALSE,Thomas,1,u,5993,right,right,TRUE,1,have you hidden it behind there?10,174,you,3,NULL,2,5,MOTHER,FALSE,Thomas,1,u,5993,right,right,TRUE,1,have you hidden it behind there?10,165,hidden,3,NULL,3,5,MOTHER,FALSE,Thomas,1,u,5993,right,right,TRUE,1,have you hidden it behind there?10,154,it,3,NULL,4,5,MOTHER,FALSE,Thomas,1,u,5993,right,right,TRUE,1,have you hidden it behind there?10,164,behind,3,NULL,5,5,MOTHER,FALSE,Thomas,1,u,5993,right,right,TRUE,1,have you hidden it behind there?10,169,there?,3,NULL,6,5,MOTHER,FALSE,Thomas,1,u,5993,right,right,TRUE,1,have you hidden it behind there?6,613,what,4,NA,1,1,MOTHER,FALSE,Thomas,2,u,1920,left,left,TRUE,1,what have you hidden behind those bubbles?6,218,have,4,NULL,2,1,MOTHER,FALSE,Thomas,2,u,1920,left,left,TRUE,1,what have you hidden behind those bubbles?6,188,you,4,NULL,3,1,MOTHER,FALSE,Thomas,2,u,1920,left,left,TRUE,1,what have you hidden behind those bubbles?6,176,hidden,4,NULL,4,1,MOTHER,FALSE,Thomas,2,u,1920,left,left,TRUE,1,what have you hidden behind those bubbles?6,176,behind,4,NULL,5,1,MOTHER,FALSE,Thomas,2,u,1920,left,left,TRUE,1,what have you hidden behind those bubbles?6,166,those,4,NULL,6,1,MOTHER,FALSE,Thomas,2,u,1920,left,left,TRUE,1,what have you hidden behind those bubbles?6,166,bubbles?,4,NULL,7,1,MOTHER,FALSE,Thomas,2,u,1920,left,left,TRUE,1,what have you hidden behind those bubbles?6,186,"um,",4,falled,1,2,CHILD,TRUE,Thomas,2,u,1920,left,left,TRUE,1,"um, Scoop falled in there."6,670,Scoop,4,falled,2,2,CHILD,TRUE,Thomas,2,u,1920,left,left,TRUE,1,"um, Scoop falled in there."6,232,falled,4,falled,3,2,CHILD,TRUE,Thomas,2,u,1920,left,left,TRUE,1,"um, Scoop falled in there."6,164,in,4,falled,4,2,CHILD,TRUE,Thomas,2,u,1920,left,left,TRUE,1,"um, Scoop falled in there."6,237,there.,4,falled,5,2,CHILD,TRUE,Thomas,2,u,1920,left,left,TRUE,1,"um, Scoop falled in there."6,562,did,4,NULL,1,3,MOTHER,FALSE,Thomas,2,u,1920,left,left,TRUE,1,did he?6,220,he?,4,NULL,2,3,MOTHER,FALSE,Thomas,2,u,1920,left,left,TRUE,1,did he?6,469,yes.,4,NULL,1,4,CHILD,FALSE,Thomas,2,u,1920,left,left,TRUE,1,yes.8,783,there,5,NA,1,1,MOTHER,FALSE,Thomas,3,u,1416,left,left,TRUE,1,there was lots of water all over the place and Firefighter who fell on the floor?8,266,was,5,NULL,2,1,MOTHER,FALSE,Thomas,3,u,1416,left,left,TRUE,1,there was lots of water all over the place and Firefighter who fell on the floor?8,201,lots,5,NULL,3,1,MOTHER,FALSE,Thomas,3,u,1416,left,left,TRUE,1,there was lots of water all over the place and Firefighter who fell on the floor?8,201,of,5,NULL,4,1,MOTHER,FALSE,Thomas,3,u,1416,left,left,TRUE,1,there was lots of water all over the place and Firefighter who fell on the floor?8,214,water,5,NULL,5,1,MOTHER,FALSE,Thomas,3,u,1416,left,left,TRUE,1,there was lots of water all over the place and Firefighter who fell on the floor?8,192,all,5,NULL,6,1,MOTHER,FALSE,Thomas,3,u,1416,left,left,TRUE,1,there was lots of water all over the place and Firefighter who fell on the floor?8,201,over,5,NULL,7,1,MOTHER,FALSE,Thomas,3,u,1416,left,left,TRUE,1,there was lots of water all over the place and Firefighter who fell on the floor?8,219,the,5,NULL,8,1,MOTHER,FALSE,Thomas,3,u,1416,left,left,TRUE,1,there was lots of water all over the place and Firefighter who fell on the floor?8,190,place,5,NULL,9,1,MOTHER,FALSE,Thomas,3,u,1416,left,left,TRUE,1,there was lots of water all over the place and Firefighter who fell on the floor?8,206,and,5,NULL,10,1,MOTHER,FALSE,Thomas,3,u,1416,left,left,TRUE,1,there was lots of water all over the place and Firefighter who fell on the floor?8,209,Firefighter,5,NULL,11,1,MOTHER,FALSE,Thomas,3,u,1416,left,left,TRUE,1,there was lots of water all over the place and Firefighter who fell on the floor?8,205,who,5,NULL,12,1,MOTHER,FALSE,Thomas,3,u,1416,left,left,TRUE,1,there was lots of water all over the place and Firefighter who fell on the floor?8,239,fell,5,NULL,13,1,MOTHER,FALSE,Thomas,3,u,1416,left,left,TRUE,1,there was lots of water all over the place and Firefighter who fell on the floor?8,213,on,5,NULL,14,1,MOTHER,FALSE,Thomas,3,u,1416,left,left,TRUE,1,there was lots of water all over the place and Firefighter who fell on the floor?8,192,the,5,NULL,15,1,MOTHER,FALSE,Thomas,3,u,1416,left,left,TRUE,1,there was lots of water all over the place and Firefighter who fell on the floor?8,209,floor?,5,NULL,16,1,MOTHER,FALSE,Thomas,3,u,1416,left,left,TRUE,1,there was lots of water all over the place and Firefighter who fell on the floor?8,549,"no,",5,lied,1,2,CHILD,TRUE,Thomas,3,u,1416,left,left,TRUE,1,"no, he lied on the floor."8,206,he,5,lied,2,2,CHILD,TRUE,Thomas,3,u,1416,left,left,TRUE,1,"no, he lied on the floor."8,186,lied,5,lied,3,2,CHILD,TRUE,Thomas,3,u,1416,left,left,TRUE,1,"no, he lied on the floor."8,206,on,5,lied,4,2,CHILD,TRUE,Thomas,3,u,1416,left,left,TRUE,1,"no, he lied on the floor."8,188,the,5,lied,5,2,CHILD,TRUE,Thomas,3,u,1416,left,left,TRUE,1,"no, he lied on the floor."8,195,floor.,5,lied,6,2,CHILD,TRUE,Thomas,3,u,1416,left,left,TRUE,1,"no, he lied on the floor."8,540,he,5,NULL,1,3,MOTHER,FALSE,Thomas,3,u,1416,left,left,TRUE,1,"he lay on the floor, did he slip on the water is that why he was lying on the floor?"8,163,lay,5,NULL,2,3,MOTHER,FALSE,Thomas,3,u,1416,left,left,TRUE,1,"he lay on the floor, did he slip on the water is that why he was lying on the floor?"8,202,on,5,NULL,3,3,MOTHER,FALSE,Thomas,3,u,1416,left,left,TRUE,1,"he lay on the floor, did he slip on the water is that why he was lying on the floor?"8,185,the,5,NULL,4,3,MOTHER,FALSE,Thomas,3,u,1416,left,left,TRUE,1,"he lay on the floor, did he slip on the water is that why he was lying on the floor?"8,178,"floor,",5,NULL,5,3,MOTHER,FALSE,Thomas,3,u,1416,left,left,TRUE,1,"he lay on the floor, did he slip on the water is that why he was lying on the floor?"8,200,did,5,NULL,6,3,MOTHER,FALSE,Thomas,3,u,1416,left,left,TRUE,1,"he lay on the floor, did he slip on the water is that why he was lying on the floor?"8,231,he,5,NULL,7,3,MOTHER,FALSE,Thomas,3,u,1416,left,left,TRUE,1,"he lay on the floor, did he slip on the water is that why he was lying on the floor?"8,203,slip,5,NULL,8,3,MOTHER,FALSE,Thomas,3,u,1416,left,left,TRUE,1,"he lay on the floor, did he slip on the water is that why he was lying on the floor?"8,214,on,5,NULL,9,3,MOTHER,FALSE,Thomas,3,u,1416,left,left,TRUE,1,"he lay on the floor, did he slip on the water is that why he was lying on the floor?"8,207,the,5,NULL,10,3,MOTHER,FALSE,Thomas,3,u,1416,left,left,TRUE,1,"he lay on the floor, did he slip on the water is that why he was lying on the floor?"8,194,water,5,NULL,11,3,MOTHER,FALSE,Thomas,3,u,1416,left,left,TRUE,1,"he lay on the floor, did he slip on the water is that why he was lying on the floor?"8,200,is,5,NULL,12,3,MOTHER,FALSE,Thomas,3,u,1416,left,left,TRUE,1,"he lay on the floor, did he slip on the water is that why he was lying on the floor?"8,198,that,5,NULL,13,3,MOTHER,FALSE,Thomas,3,u,1416,left,left,TRUE,1,"he lay on the floor, did he slip on the water is that why he was lying on the floor?"8,198,why,5,NULL,14,3,MOTHER,FALSE,Thomas,3,u,1416,left,left,TRUE,1,"he lay on the floor, did he slip on the water is that why he was lying on the floor?"8,200,he,5,NULL,15,3,MOTHER,FALSE,Thomas,3,u,1416,left,left,TRUE,1,"he lay on the floor, did he slip on the water is that why he was lying on the floor?"8,193,was,5,NULL,16,3,MOTHER,FALSE,Thomas,3,u,1416,left,left,TRUE,1,"he lay on the floor, did he slip on the water is that why he was lying on the floor?"8,190,lying,5,NULL,17,3,MOTHER,FALSE,Thomas,3,u,1416,left,left,TRUE,1,"he lay on the floor, did he slip on the water is that why he was lying on the floor?"8,173,on,5,NULL,18,3,MOTHER,FALSE,Thomas,3,u,1416,left,left,TRUE,1,"he lay on the floor, did he slip on the water is that why he was lying on the floor?"8,188,the,5,NULL,19,3,MOTHER,FALSE,Thomas,3,u,1416,left,left,TRUE,1,"he lay on the floor, did he slip on the water is that why he was lying on the floor?"8,193,floor?,5,NULL,20,3,MOTHER,FALSE,Thomas,3,u,1416,left,left,TRUE,1,"he lay on the floor, did he slip on the water is that why he was lying on the floor?"8,724,yes.,5,NULL,1,4,CHILD,FALSE,Thomas,3,u,1416,left,left,TRUE,1,yes.8,516,I,5,NULL,1,5,MOTHER,FALSE,Thomas,3,u,1416,left,left,TRUE,1,I see.8,356,see.,5,NULL,2,5,MOTHER,FALSE,Thomas,3,u,1416,left,left,TRUE,1,I see.5,696,we've,6,NA,1,1,MOTHER,FALSE,Thomas,4,u,2414,left,left,TRUE,1,"we've got to practise a little bit of drawing, Thomas."5,241,got,6,NULL,2,1,MOTHER,FALSE,Thomas,4,u,2414,left,left,TRUE,1,"we've got to practise a little bit of drawing, Thomas."5,227,to,6,NULL,3,1,MOTHER,FALSE,Thomas,4,u,2414,left,left,TRUE,1,"we've got to practise a little bit of drawing, Thomas."5,222,practise,6,NULL,4,1,MOTHER,FALSE,Thomas,4,u,2414,left,left,TRUE,1,"we've got to practise a little bit of drawing, Thomas."5,231,a,6,NULL,5,1,MOTHER,FALSE,Thomas,4,u,2414,left,left,TRUE,1,"we've got to practise a little bit of drawing, Thomas."5,214,little,6,NULL,6,1,MOTHER,FALSE,Thomas,4,u,2414,left,left,TRUE,1,"we've got to practise a little bit of drawing, Thomas."5,214,bit,6,NULL,7,1,MOTHER,FALSE,Thomas,4,u,2414,left,left,TRUE,1,"we've got to practise a little bit of drawing, Thomas."5,197,of,6,NULL,8,1,MOTHER,FALSE,Thomas,4,u,2414,left,left,TRUE,1,"we've got to practise a little bit of drawing, Thomas."5,182,"drawing,",6,NULL,9,1,MOTHER,FALSE,Thomas,4,u,2414,left,left,TRUE,1,"we've got to practise a little bit of drawing, Thomas."5,190,Thomas.,6,NULL,10,1,MOTHER,FALSE,Thomas,4,u,2414,left,left,TRUE,1,"we've got to practise a little bit of drawing, Thomas."5,551,"no,",6,drawed,1,2,CHILD,TRUE,Thomas,4,u,2414,left,left,TRUE,1,"no, don't want to because I've drawed some already."5,205,don't,6,drawed,2,2,CHILD,TRUE,Thomas,4,u,2414,left,left,TRUE,1,"no, don't want to because I've drawed some already."5,191,want,6,drawed,3,2,CHILD,TRUE,Thomas,4,u,2414,left,left,TRUE,1,"no, don't want to because I've drawed some already."5,186,to,6,drawed,4,2,CHILD,TRUE,Thomas,4,u,2414,left,left,TRUE,1,"no, don't want to because I've drawed some already."5,169,because,6,drawed,5,2,CHILD,TRUE,Thomas,4,u,2414,left,left,TRUE,1,"no, don't want to because I've drawed some already."5,205,I've,6,drawed,6,2,CHILD,TRUE,Thomas,4,u,2414,left,left,TRUE,1,"no, don't want to because I've drawed some already."5,195,drawed,6,drawed,7,2,CHILD,TRUE,Thomas,4,u,2414,left,left,TRUE,1,"no, don't want to because I've drawed some already."5,182,some,6,drawed,8,2,CHILD,TRUE,Thomas,4,u,2414,left,left,TRUE,1,"no, don't want to because I've drawed some already."5,380,already.,6,drawed,9,2,CHILD,TRUE,Thomas,4,u,2414,left,left,TRUE,1,"no, don't want to because I've drawed some already."5,588,no?,6,NULL,1,3,MOTHER,FALSE,Thomas,4,u,2414,left,left,TRUE,1,no?5,484,at,6,NULL,1,4,CHILD,FALSE,Thomas,4,u,2414,left,left,TRUE,1,at school.5,357,school.,6,NULL,2,4,CHILD,FALSE,Thomas,4,u,2414,left,left,TRUE,1,at school.5,557,"well,",6,NULL,1,5,MOTHER,FALSE,Thomas,4,u,2414,left,left,TRUE,1,"well, love, we're not at school now."5,226,"love,",6,NULL,2,5,MOTHER,FALSE,Thomas,4,u,2414,left,left,TRUE,1,"well, love, we're not at school now."5,202,we're,6,NULL,3,5,MOTHER,FALSE,Thomas,4,u,2414,left,left,TRUE,1,"well, love, we're not at school now."5,209,not,6,NULL,4,5,MOTHER,FALSE,Thomas,4,u,2414,left,left,TRUE,1,"well, love, we're not at school now."5,217,at,6,NULL,5,5,MOTHER,FALSE,Thomas,4,u,2414,left,left,TRUE,1,"well, love, we're not at school now."5,196,school,6,NULL,6,5,MOTHER,FALSE,Thomas,4,u,2414,left,left,TRUE,1,"well, love, we're not at school now."5,309,now.,6,NULL,7,5,MOTHER,FALSE,Thomas,4,u,2414,left,left,TRUE,1,"well, love, we're not at school now."4,674,I,7,NA,1,1,CHILD,FALSE,Thomas,5,g,5336,right,right,TRUE,1,I did not do this at all.4,206,did,7,NULL,2,1,CHILD,FALSE,Thomas,5,g,5336,right,right,TRUE,1,I did not do this at all.4,210,not,7,NULL,3,1,CHILD,FALSE,Thomas,5,g,5336,right,right,TRUE,1,I did not do this at all.4,204,do,7,NULL,4,1,CHILD,FALSE,Thomas,5,g,5336,right,right,TRUE,1,I did not do this at all.4,191,this,7,NULL,5,1,CHILD,FALSE,Thomas,5,g,5336,right,right,TRUE,1,I did not do this at all.4,177,at,7,NULL,6,1,CHILD,FALSE,Thomas,5,g,5336,right,right,TRUE,1,I did not do this at all.4,358,all.,7,NULL,7,1,CHILD,FALSE,Thomas,5,g,5336,right,right,TRUE,1,I did not do this at all.4,533,a,7,NULL,1,2,MOTHER,FALSE,Thomas,5,g,5336,right,right,TRUE,1,"a bit of patience, you made one."4,232,bit,7,NULL,2,2,MOTHER,FALSE,Thomas,5,g,5336,right,right,TRUE,1,"a bit of patience, you made one."4,206,of,7,NULL,3,2,MOTHER,FALSE,Thomas,5,g,5336,right,right,TRUE,1,"a bit of patience, you made one."4,173,"patience,",7,NULL,4,2,MOTHER,FALSE,Thomas,5,g,5336,right,right,TRUE,1,"a bit of patience, you made one."4,191,you,7,NULL,5,2,MOTHER,FALSE,Thomas,5,g,5336,right,right,TRUE,1,"a bit of patience, you made one."4,194,made,7,NULL,6,2,MOTHER,FALSE,Thomas,5,g,5336,right,right,TRUE,1,"a bit of patience, you made one."4,185,one.,7,NULL,7,2,MOTHER,FALSE,Thomas,5,g,5336,right,right,TRUE,1,"a bit of patience, you made one."4,615,"no,",7,made,1,3,CHILD,TRUE,Thomas,5,g,5336,right,right,TRUE,1,"no, I didn't, you made it."4,182,I,7,made,2,3,CHILD,TRUE,Thomas,5,g,5336,right,right,TRUE,1,"no, I didn't, you made it."4,165,"didn't,",7,made,3,3,CHILD,TRUE,Thomas,5,g,5336,right,right,TRUE,1,"no, I didn't, you made it."4,178,you,7,made,4,3,CHILD,TRUE,Thomas,5,g,5336,right,right,TRUE,1,"no, I didn't, you made it."4,172,made,7,made,5,3,CHILD,TRUE,Thomas,5,g,5336,right,right,TRUE,1,"no, I didn't, you made it."4,425,it.,7,made,6,3,CHILD,TRUE,Thomas,5,g,5336,right,right,TRUE,1,"no, I didn't, you made it."4,597,"well,",7,NULL,1,4,MOTHER,FALSE,Thomas,5,g,5336,right,right,TRUE,1,"well, you make the next one and I'll slot it in the top."4,231,you,7,NULL,2,4,MOTHER,FALSE,Thomas,5,g,5336,right,right,TRUE,1,"well, you make the next one and I'll slot it in the top."4,189,make,7,NULL,3,4,MOTHER,FALSE,Thomas,5,g,5336,right,right,TRUE,1,"well, you make the next one and I'll slot it in the top."4,197,the,7,NULL,4,4,MOTHER,FALSE,Thomas,5,g,5336,right,right,TRUE,1,"well, you make the next one and I'll slot it in the top."4,616,next,7,NULL,5,4,MOTHER,FALSE,Thomas,5,g,5336,right,right,TRUE,1,"well, you make the next one and I'll slot it in the top."4,191,one,7,NULL,6,4,MOTHER,FALSE,Thomas,5,g,5336,right,right,TRUE,1,"well, you make the next one and I'll slot it in the top."4,185,and,7,NULL,7,4,MOTHER,FALSE,Thomas,5,g,5336,right,right,TRUE,1,"well, you make the next one and I'll slot it in the top."4,201,I'll,7,NULL,8,4,MOTHER,FALSE,Thomas,5,g,5336,right,right,TRUE,1,"well, you make the next one and I'll slot it in the top."4,179,slot,7,NULL,9,4,MOTHER,FALSE,Thomas,5,g,5336,right,right,TRUE,1,"well, you make the next one and I'll slot it in the top."4,217,it,7,NULL,10,4,MOTHER,FALSE,Thomas,5,g,5336,right,right,TRUE,1,"well, you make the next one and I'll slot it in the top."4,194,in,7,NULL,11,4,MOTHER,FALSE,Thomas,5,g,5336,right,right,TRUE,1,"well, you make the next one and I'll slot it in the top."4,197,the,7,NULL,12,4,MOTHER,FALSE,Thomas,5,g,5336,right,right,TRUE,1,"well, you make the next one and I'll slot it in the top."4,186,top.,7,NULL,13,4,MOTHER,FALSE,Thomas,5,g,5336,right,right,TRUE,1,"well, you make the next one and I'll slot it in the top."4,612,no.,7,NULL,1,5,CHILD,FALSE,Thomas,5,g,5336,right,right,TRUE,1,no.4,404,no?,7,NULL,1,6,MOTHER,FALSE,Thomas,5,g,5336,right,right,TRUE,1,no?4,445,no.,7,NULL,1,7,CHILD,FALSE,Thomas,5,g,5336,right,right,TRUE,1,no.9,754,she,8,NA,1,1,MOTHER,FALSE,Thomas,6,g,2422,right,right,TRUE,1,"she had to go to the shop and buy another one, didn't she?"9,262,had,8,NULL,2,1,MOTHER,FALSE,Thomas,6,g,2422,right,right,TRUE,1,"she had to go to the shop and buy another one, didn't she?"9,269,to,8,NULL,3,1,MOTHER,FALSE,Thomas,6,g,2422,right,right,TRUE,1,"she had to go to the shop and buy another one, didn't she?"9,244,go,8,NULL,4,1,MOTHER,FALSE,Thomas,6,g,2422,right,right,TRUE,1,"she had to go to the shop and buy another one, didn't she?"9,223,to,8,NULL,5,1,MOTHER,FALSE,Thomas,6,g,2422,right,right,TRUE,1,"she had to go to the shop and buy another one, didn't she?"9,193,the,8,NULL,6,1,MOTHER,FALSE,Thomas,6,g,2422,right,right,TRUE,1,"she had to go to the shop and buy another one, didn't she?"9,206,shop,8,NULL,7,1,MOTHER,FALSE,Thomas,6,g,2422,right,right,TRUE,1,"she had to go to the shop and buy another one, didn't she?"9,199,and,8,NULL,8,1,MOTHER,FALSE,Thomas,6,g,2422,right,right,TRUE,1,"she had to go to the shop and buy another one, didn't she?"9,216,buy,8,NULL,9,1,MOTHER,FALSE,Thomas,6,g,2422,right,right,TRUE,1,"she had to go to the shop and buy another one, didn't she?"9,208,another,8,NULL,10,1,MOTHER,FALSE,Thomas,6,g,2422,right,right,TRUE,1,"she had to go to the shop and buy another one, didn't she?"9,222,"one,",8,NULL,11,1,MOTHER,FALSE,Thomas,6,g,2422,right,right,TRUE,1,"she had to go to the shop and buy another one, didn't she?"9,214,didn't,8,NULL,12,1,MOTHER,FALSE,Thomas,6,g,2422,right,right,TRUE,1,"she had to go to the shop and buy another one, didn't she?"9,223,she?,8,NULL,13,1,MOTHER,FALSE,Thomas,6,g,2422,right,right,TRUE,1,"she had to go to the shop and buy another one, didn't she?"9,565,then,8,sold,1,2,CHILD,TRUE,Thomas,6,g,2422,right,right,TRUE,1,then they said they sold them.9,191,they,8,sold,2,2,CHILD,TRUE,Thomas,6,g,2422,right,right,TRUE,1,then they said they sold them.9,175,said,8,sold,3,2,CHILD,TRUE,Thomas,6,g,2422,right,right,TRUE,1,then they said they sold them.9,191,they,8,sold,4,2,CHILD,TRUE,Thomas,6,g,2422,right,right,TRUE,1,then they said they sold them.9,165,sold,8,sold,5,2,CHILD,TRUE,Thomas,6,g,2422,right,right,TRUE,1,then they said they sold them.9,201,them.,8,sold,6,2,CHILD,TRUE,Thomas,6,g,2422,right,right,TRUE,1,then they said they sold them.9,562,and,8,NULL,1,3,MOTHER,FALSE,Thomas,6,g,2422,right,right,TRUE,1,and they didn't sell them.9,191,they,8,NULL,2,3,MOTHER,FALSE,Thomas,6,g,2422,right,right,TRUE,1,and they didn't sell them.9,177,didn't,8,NULL,3,3,MOTHER,FALSE,Thomas,6,g,2422,right,right,TRUE,1,and they didn't sell them.9,197,sell,8,NULL,4,3,MOTHER,FALSE,Thomas,6,g,2422,right,right,TRUE,1,and they didn't sell them.9,157,them.,8,NULL,5,3,MOTHER,FALSE,Thomas,6,g,2422,right,right,TRUE,1,and they didn't sell them.9,573,no.,8,NULL,1,4,CHILD,FALSE,Thomas,6,g,2422,right,right,TRUE,1,no.9,579,I,8,NULL,1,5,MOTHER,FALSE,Thomas,6,g,2422,right,right,TRUE,1,"I think her nephew sent her a teapot in the post for a birthday present and she was really proud of it, wasn't she?"9,369,think,8,NULL,2,5,MOTHER,FALSE,Thomas,6,g,2422,right,right,TRUE,1,"I think her nephew sent her a teapot in the post for a birthday present and she was really proud of it, wasn't she?"9,212,her,8,NULL,3,5,MOTHER,FALSE,Thomas,6,g,2422,right,right,TRUE,1,"I think her nephew sent her a teapot in the post for a birthday present and she was really proud of it, wasn't she?"9,200,nephew,8,NULL,4,5,MOTHER,FALSE,Thomas,6,g,2422,right,right,TRUE,1,"I think her nephew sent her a teapot in the post for a birthday present and she was really proud of it, wasn't she?"9,196,sent,8,NULL,5,5,MOTHER,FALSE,Thomas,6,g,2422,right,right,TRUE,1,"I think her nephew sent her a teapot in the post for a birthday present and she was really proud of it, wasn't she?"9,208,her,8,NULL,6,5,MOTHER,FALSE,Thomas,6,g,2422,right,right,TRUE,1,"I think her nephew sent her a teapot in the post for a birthday present and she was really proud of it, wasn't she?"9,222,a,8,NULL,7,5,MOTHER,FALSE,Thomas,6,g,2422,right,right,TRUE,1,"I think her nephew sent her a teapot in the post for a birthday present and she was really proud of it, wasn't she?"9,236,teapot,8,NULL,8,5,MOTHER,FALSE,Thomas,6,g,2422,right,right,TRUE,1,"I think her nephew sent her a teapot in the post for a birthday present and she was really proud of it, wasn't she?"9,220,in,8,NULL,9,5,MOTHER,FALSE,Thomas,6,g,2422,right,right,TRUE,1,"I think her nephew sent her a teapot in the post for a birthday present and she was really proud of it, wasn't she?"9,232,the,8,NULL,10,5,MOTHER,FALSE,Thomas,6,g,2422,right,right,TRUE,1,"I think her nephew sent her a teapot in the post for a birthday present and she was really proud of it, wasn't she?"9,235,post,8,NULL,11,5,MOTHER,FALSE,Thomas,6,g,2422,right,right,TRUE,1,"I think her nephew sent her a teapot in the post for a birthday present and she was really proud of it, wasn't she?"9,234,for,8,NULL,12,5,MOTHER,FALSE,Thomas,6,g,2422,right,right,TRUE,1,"I think her nephew sent her a teapot in the post for a birthday present and she was really proud of it, wasn't she?"9,235,a,8,NULL,13,5,MOTHER,FALSE,Thomas,6,g,2422,right,right,TRUE,1,"I think her nephew sent her a teapot in the post for a birthday present and she was really proud of it, wasn't she?"9,217,birthday,8,NULL,14,5,MOTHER,FALSE,Thomas,6,g,2422,right,right,TRUE,1,"I think her nephew sent her a teapot in the post for a birthday present and she was really proud of it, wasn't she?"9,219,present,8,NULL,15,5,MOTHER,FALSE,Thomas,6,g,2422,right,right,TRUE,1,"I think her nephew sent her a teapot in the post for a birthday present and she was really proud of it, wasn't she?"9,241,and,8,NULL,16,5,MOTHER,FALSE,Thomas,6,g,2422,right,right,TRUE,1,"I think her nephew sent her a teapot in the post for a birthday present and she was really proud of it, wasn't she?"9,202,she,8,NULL,17,5,MOTHER,FALSE,Thomas,6,g,2422,right,right,TRUE,1,"I think her nephew sent her a teapot in the post for a birthday present and she was really proud of it, wasn't she?"9,204,was,8,NULL,18,5,MOTHER,FALSE,Thomas,6,g,2422,right,right,TRUE,1,"I think her nephew sent her a teapot in the post for a birthday present and she was really proud of it, wasn't she?"9,218,really,8,NULL,19,5,MOTHER,FALSE,Thomas,6,g,2422,right,right,TRUE,1,"I think her nephew sent her a teapot in the post for a birthday present and she was really proud of it, wasn't she?"9,224,proud,8,NULL,20,5,MOTHER,FALSE,Thomas,6,g,2422,right,right,TRUE,1,"I think her nephew sent her a teapot in the post for a birthday present and she was really proud of it, wasn't she?"9,200,of,8,NULL,21,5,MOTHER,FALSE,Thomas,6,g,2422,right,right,TRUE,1,"I think her nephew sent her a teapot in the post for a birthday present and she was really proud of it, wasn't she?"9,205,"it,",8,NULL,22,5,MOTHER,FALSE,Thomas,6,g,2422,right,right,TRUE,1,"I think her nephew sent her a teapot in the post for a birthday present and she was really proud of it, wasn't she?"9,224,wasn't,8,NULL,23,5,MOTHER,FALSE,Thomas,6,g,2422,right,right,TRUE,1,"I think her nephew sent her a teapot in the post for a birthday present and she was really proud of it, wasn't she?"9,372,she?,8,NULL,24,5,MOTHER,FALSE,Thomas,6,g,2422,right,right,TRUE,1,"I think her nephew sent her a teapot in the post for a birthday present and she was really proud of it, wasn't she?"7,1263,the,9,NA,1,1,CHILD,FALSE,Thomas,7,g,1994,right,right,TRUE,1,the ball went over our fence.7,231,ball,9,NULL,2,1,CHILD,FALSE,Thomas,7,g,1994,right,right,TRUE,1,the ball went over our fence.7,239,went,9,NULL,3,1,CHILD,FALSE,Thomas,7,g,1994,right,right,TRUE,1,the ball went over our fence.7,228,over,9,NULL,4,1,CHILD,FALSE,Thomas,7,g,1994,right,right,TRUE,1,the ball went over our fence.7,236,our,9,NULL,5,1,CHILD,FALSE,Thomas,7,g,1994,right,right,TRUE,1,the ball went over our fence.7,240,fence.,9,NULL,6,1,CHILD,FALSE,Thomas,7,g,1994,right,right,TRUE,1,the ball went over our fence.7,571,"well,",9,NULL,1,2,MOTHER,FALSE,Thomas,7,g,1994,right,right,TRUE,1,"well, I think if the ball went over our fence when I wasn't looking it'd still be there, wouldn't it?"7,224,I,9,NULL,2,2,MOTHER,FALSE,Thomas,7,g,1994,right,right,TRUE,1,"well, I think if the ball went over our fence when I wasn't looking it'd still be there, wouldn't it?"7,208,think,9,NULL,3,2,MOTHER,FALSE,Thomas,7,g,1994,right,right,TRUE,1,"well, I think if the ball went over our fence when I wasn't looking it'd still be there, wouldn't it?"7,219,if,9,NULL,4,2,MOTHER,FALSE,Thomas,7,g,1994,right,right,TRUE,1,"well, I think if the ball went over our fence when I wasn't looking it'd still be there, wouldn't it?"7,187,the,9,NULL,5,2,MOTHER,FALSE,Thomas,7,g,1994,right,right,TRUE,1,"well, I think if the ball went over our fence when I wasn't looking it'd still be there, wouldn't it?"7,210,ball,9,NULL,6,2,MOTHER,FALSE,Thomas,7,g,1994,right,right,TRUE,1,"well, I think if the ball went over our fence when I wasn't looking it'd still be there, wouldn't it?"7,185,went,9,NULL,7,2,MOTHER,FALSE,Thomas,7,g,1994,right,right,TRUE,1,"well, I think if the ball went over our fence when I wasn't looking it'd still be there, wouldn't it?"7,191,over,9,NULL,8,2,MOTHER,FALSE,Thomas,7,g,1994,right,right,TRUE,1,"well, I think if the ball went over our fence when I wasn't looking it'd still be there, wouldn't it?"7,195,our,9,NULL,9,2,MOTHER,FALSE,Thomas,7,g,1994,right,right,TRUE,1,"well, I think if the ball went over our fence when I wasn't looking it'd still be there, wouldn't it?"7,195,fence,9,NULL,10,2,MOTHER,FALSE,Thomas,7,g,1994,right,right,TRUE,1,"well, I think if the ball went over our fence when I wasn't looking it'd still be there, wouldn't it?"7,203,when,9,NULL,11,2,MOTHER,FALSE,Thomas,7,g,1994,right,right,TRUE,1,"well, I think if the ball went over our fence when I wasn't looking it'd still be there, wouldn't it?"7,229,I,9,NULL,12,2,MOTHER,FALSE,Thomas,7,g,1994,right,right,TRUE,1,"well, I think if the ball went over our fence when I wasn't looking it'd still be there, wouldn't it?"7,203,wasn't,9,NULL,13,2,MOTHER,FALSE,Thomas,7,g,1994,right,right,TRUE,1,"well, I think if the ball went over our fence when I wasn't looking it'd still be there, wouldn't it?"7,233,looking,9,NULL,14,2,MOTHER,FALSE,Thomas,7,g,1994,right,right,TRUE,1,"well, I think if the ball went over our fence when I wasn't looking it'd still be there, wouldn't it?"7,234,it'd,9,NULL,15,2,MOTHER,FALSE,Thomas,7,g,1994,right,right,TRUE,1,"well, I think if the ball went over our fence when I wasn't looking it'd still be there, wouldn't it?"7,209,still,9,NULL,16,2,MOTHER,FALSE,Thomas,7,g,1994,right,right,TRUE,1,"well, I think if the ball went over our fence when I wasn't looking it'd still be there, wouldn't it?"7,211,be,9,NULL,17,2,MOTHER,FALSE,Thomas,7,g,1994,right,right,TRUE,1,"well, I think if the ball went over our fence when I wasn't looking it'd still be there, wouldn't it?"7,201,"there,",9,NULL,18,2,MOTHER,FALSE,Thomas,7,g,1994,right,right,TRUE,1,"well, I think if the ball went over our fence when I wasn't looking it'd still be there, wouldn't it?"7,211,wouldn't,9,NULL,19,2,MOTHER,FALSE,Thomas,7,g,1994,right,right,TRUE,1,"well, I think if the ball went over our fence when I wasn't looking it'd still be there, wouldn't it?"7,218,it?,9,NULL,20,2,MOTHER,FALSE,Thomas,7,g,1994,right,right,TRUE,1,"well, I think if the ball went over our fence when I wasn't looking it'd still be there, wouldn't it?"7,690,I,9,threw,1,3,CHILD,TRUE,Thomas,7,g,1994,right,right,TRUE,1,I threw it back for them.7,201,threw,9,threw,2,3,CHILD,TRUE,Thomas,7,g,1994,right,right,TRUE,1,I threw it back for them.7,185,it,9,threw,3,3,CHILD,TRUE,Thomas,7,g,1994,right,right,TRUE,1,I threw it back for them.7,193,back,9,threw,4,3,CHILD,TRUE,Thomas,7,g,1994,right,right,TRUE,1,I threw it back for them.7,187,for,9,threw,5,3,CHILD,TRUE,Thomas,7,g,1994,right,right,TRUE,1,I threw it back for them.7,227,them.,9,threw,6,3,CHILD,TRUE,Thomas,7,g,1994,right,right,TRUE,1,I threw it back for them.7,539,did,9,NULL,1,4,MOTHER,FALSE,Thomas,7,g,1994,right,right,TRUE,1,did you?7,340,you?,9,NULL,2,4,MOTHER,FALSE,Thomas,7,g,1994,right,right,TRUE,1,did you?7,534,uh-huh.,9,NULL,1,5,CHILD,FALSE,Thomas,7,g,1994,right,right,TRUE,1,uh-huh.7,483,right.,9,NULL,1,6,MOTHER,FALSE,Thomas,7,g,1994,right,right,TRUE,1,right.1,688,you,10,NA,1,1,MOTHER,FALSE,Thomas,8,g,2489,right,right,TRUE,1,you did it quick so I didn't tread on it.1,210,did,10,NULL,2,1,MOTHER,FALSE,Thomas,8,g,2489,right,right,TRUE,1,you did it quick so I didn't tread on it.1,203,it,10,NULL,3,1,MOTHER,FALSE,Thomas,8,g,2489,right,right,TRUE,1,you did it quick so I didn't tread on it.1,201,quick,10,NULL,4,1,MOTHER,FALSE,Thomas,8,g,2489,right,right,TRUE,1,you did it quick so I didn't tread on it.1,196,so,10,NULL,5,1,MOTHER,FALSE,Thomas,8,g,2489,right,right,TRUE,1,you did it quick so I didn't tread on it.1,198,I,10,NULL,6,1,MOTHER,FALSE,Thomas,8,g,2489,right,right,TRUE,1,you did it quick so I didn't tread on it.1,191,didn't,10,NULL,7,1,MOTHER,FALSE,Thomas,8,g,2489,right,right,TRUE,1,you did it quick so I didn't tread on it.1,204,tread,10,NULL,8,1,MOTHER,FALSE,Thomas,8,g,2489,right,right,TRUE,1,you did it quick so I didn't tread on it.1,214,on,10,NULL,9,1,MOTHER,FALSE,Thomas,8,g,2489,right,right,TRUE,1,you did it quick so I didn't tread on it.1,360,it.,10,NULL,10,1,MOTHER,FALSE,Thomas,8,g,2489,right,right,TRUE,1,you did it quick so I didn't tread on it.1,542,yeah.,10,NULL,1,2,CHILD,FALSE,Thomas,8,g,2489,right,right,TRUE,1,yeah.1,465,"well,",10,NULL,1,3,MOTHER,FALSE,Thomas,8,g,2489,right,right,TRUE,1,"well, that's a clever boy, isn't it?"1,209,that's,10,NULL,2,3,MOTHER,FALSE,Thomas,8,g,2489,right,right,TRUE,1,"well, that's a clever boy, isn't it?"1,184,a,10,NULL,3,3,MOTHER,FALSE,Thomas,8,g,2489,right,right,TRUE,1,"well, that's a clever boy, isn't it?"1,195,clever,10,NULL,4,3,MOTHER,FALSE,Thomas,8,g,2489,right,right,TRUE,1,"well, that's a clever boy, isn't it?"1,192,"boy,",10,NULL,5,3,MOTHER,FALSE,Thomas,8,g,2489,right,right,TRUE,1,"well, that's a clever boy, isn't it?"1,210,isn't,10,NULL,6,3,MOTHER,FALSE,Thomas,8,g,2489,right,right,TRUE,1,"well, that's a clever boy, isn't it?"1,475,it?,10,NULL,7,3,MOTHER,FALSE,Thomas,8,g,2489,right,right,TRUE,1,"well, that's a clever boy, isn't it?"1,476,yes,10,NULL,1,4,CHILD,FALSE,Thomas,8,g,2489,right,right,TRUE,1,yes there's two stalks right there.1,191,there's,10,NULL,2,4,CHILD,FALSE,Thomas,8,g,2489,right,right,TRUE,1,yes there's two stalks right there.1,178,two,10,NULL,3,4,CHILD,FALSE,Thomas,8,g,2489,right,right,TRUE,1,yes there's two stalks right there.1,186,stalks,10,NULL,4,4,CHILD,FALSE,Thomas,8,g,2489,right,right,TRUE,1,yes there's two stalks right there.1,161,right,10,NULL,5,4,CHILD,FALSE,Thomas,8,g,2489,right,right,TRUE,1,yes there's two stalks right there.1,188,there.,10,NULL,6,4,CHILD,FALSE,Thomas,8,g,2489,right,right,TRUE,1,yes there's two stalks right there.1,613,"right,",10,NULL,1,5,MOTHER,FALSE,Thomas,8,g,2489,right,right,TRUE,1,"right, I think that might be a spot on the carpet actually, Thomas, don't you?"1,233,I,10,NULL,2,5,MOTHER,FALSE,Thomas,8,g,2489,right,right,TRUE,1,"right, I think that might be a spot on the carpet actually, Thomas, don't you?"1,230,think,10,NULL,3,5,MOTHER,FALSE,Thomas,8,g,2489,right,right,TRUE,1,"right, I think that might be a spot on the carpet actually, Thomas, don't you?"1,209,that,10,NULL,4,5,MOTHER,FALSE,Thomas,8,g,2489,right,right,TRUE,1,"right, I think that might be a spot on the carpet actually, Thomas, don't you?"1,200,might,10,NULL,5,5,MOTHER,FALSE,Thomas,8,g,2489,right,right,TRUE,1,"right, I think that might be a spot on the carpet actually, Thomas, don't you?"1,209,be,10,NULL,6,5,MOTHER,FALSE,Thomas,8,g,2489,right,right,TRUE,1,"right, I think that might be a spot on the carpet actually, Thomas, don't you?"1,201,a,10,NULL,7,5,MOTHER,FALSE,Thomas,8,g,2489,right,right,TRUE,1,"right, I think that might be a spot on the carpet actually, Thomas, don't you?"1,209,spot,10,NULL,8,5,MOTHER,FALSE,Thomas,8,g,2489,right,right,TRUE,1,"right, I think that might be a spot on the carpet actually, Thomas, don't you?"1,219,on,10,NULL,9,5,MOTHER,FALSE,Thomas,8,g,2489,right,right,TRUE,1,"right, I think that might be a spot on the carpet actually, Thomas, don't you?"1,201,the,10,NULL,10,5,MOTHER,FALSE,Thomas,8,g,2489,right,right,TRUE,1,"right, I think that might be a spot on the carpet actually, Thomas, don't you?"1,198,carpet,10,NULL,11,5,MOTHER,FALSE,Thomas,8,g,2489,right,right,TRUE,1,"right, I think that might be a spot on the carpet actually, Thomas, don't you?"1,196,"actually,",10,NULL,12,5,MOTHER,FALSE,Thomas,8,g,2489,right,right,TRUE,1,"right, I think that might be a spot on the carpet actually, Thomas, don't you?"1,205,"Thomas,",10,NULL,13,5,MOTHER,FALSE,Thomas,8,g,2489,right,right,TRUE,1,"right, I think that might be a spot on the carpet actually, Thomas, don't you?"1,209,don't,10,NULL,14,5,MOTHER,FALSE,Thomas,8,g,2489,right,right,TRUE,1,"right, I think that might be a spot on the carpet actually, Thomas, don't you?"1,199,you?,10,NULL,15,5,MOTHER,FALSE,Thomas,8,g,2489,right,right,TRUE,1,"right, I think that might be a spot on the carpet actually, Thomas, don't you?"1,599,I,10,swept,1,6,CHILD,TRUE,Thomas,8,g,2489,right,right,TRUE,1,I swept it up.1,196,swept,10,swept,2,6,CHILD,TRUE,Thomas,8,g,2489,right,right,TRUE,1,I swept it up.1,198,it,10,swept,3,6,CHILD,TRUE,Thomas,8,g,2489,right,right,TRUE,1,I swept it up.1,470,up.,10,swept,4,6,CHILD,TRUE,Thomas,8,g,2489,right,right,TRUE,1,I swept it up.1,538,"oh,",10,NULL,1,7,MOTHER,FALSE,Thomas,8,g,2489,right,right,TRUE,1,"oh, you're very clever."1,207,you're,10,NULL,2,7,MOTHER,FALSE,Thomas,8,g,2489,right,right,TRUE,1,"oh, you're very clever."1,182,very,10,NULL,3,7,MOTHER,FALSE,Thomas,8,g,2489,right,right,TRUE,1,"oh, you're very clever."1,414,clever.,10,NULL,4,7,MOTHER,FALSE,Thomas,8,g,2489,right,right,TRUE,1,"oh, you're very clever."3,812,"no,",11,NA,1,1,MOTHER,FALSE,Thomas,9,u,2484,left,left,TRUE,1,"no, no, no."3,237,"no,",11,NULL,2,1,MOTHER,FALSE,Thomas,9,u,2484,left,left,TRUE,1,"no, no, no."3,238,no.,11,NULL,3,1,MOTHER,FALSE,Thomas,9,u,2484,left,left,TRUE,1,"no, no, no."3,544,if,11,runned,1,2,CHILD,TRUE,Thomas,9,u,2484,left,left,TRUE,1,if I runned away what would happen?3,197,I,11,runned,2,2,CHILD,TRUE,Thomas,9,u,2484,left,left,TRUE,1,if I runned away what would happen?3,199,runned,11,runned,3,2,CHILD,TRUE,Thomas,9,u,2484,left,left,TRUE,1,if I runned away what would happen?3,180,away,11,runned,4,2,CHILD,TRUE,Thomas,9,u,2484,left,left,TRUE,1,if I runned away what would happen?3,202,what,11,runned,5,2,CHILD,TRUE,Thomas,9,u,2484,left,left,TRUE,1,if I runned away what would happen?3,213,would,11,runned,6,2,CHILD,TRUE,Thomas,9,u,2484,left,left,TRUE,1,if I runned away what would happen?3,202,happen?,11,runned,7,2,CHILD,TRUE,Thomas,9,u,2484,left,left,TRUE,1,if I runned away what would happen?3,610,"now,",11,NULL,1,3,MOTHER,FALSE,Thomas,9,u,2484,left,left,TRUE,1,"now, if you ran away and let go it would come flying back and hit me wouldn't it?"3,205,if,11,NULL,2,3,MOTHER,FALSE,Thomas,9,u,2484,left,left,TRUE,1,"now, if you ran away and let go it would come flying back and hit me wouldn't it?"3,176,you,11,NULL,3,3,MOTHER,FALSE,Thomas,9,u,2484,left,left,TRUE,1,"now, if you ran away and let go it would come flying back and hit me wouldn't it?"3,212,ran,11,NULL,4,3,MOTHER,FALSE,Thomas,9,u,2484,left,left,TRUE,1,"now, if you ran away and let go it would come flying back and hit me wouldn't it?"3,185,away,11,NULL,5,3,MOTHER,FALSE,Thomas,9,u,2484,left,left,TRUE,1,"now, if you ran away and let go it would come flying back and hit me wouldn't it?"3,188,and,11,NULL,6,3,MOTHER,FALSE,Thomas,9,u,2484,left,left,TRUE,1,"now, if you ran away and let go it would come flying back and hit me wouldn't it?"3,204,let,11,NULL,7,3,MOTHER,FALSE,Thomas,9,u,2484,left,left,TRUE,1,"now, if you ran away and let go it would come flying back and hit me wouldn't it?"3,215,go,11,NULL,8,3,MOTHER,FALSE,Thomas,9,u,2484,left,left,TRUE,1,"now, if you ran away and let go it would come flying back and hit me wouldn't it?"3,229,it,11,NULL,9,3,MOTHER,FALSE,Thomas,9,u,2484,left,left,TRUE,1,"now, if you ran away and let go it would come flying back and hit me wouldn't it?"3,203,would,11,NULL,10,3,MOTHER,FALSE,Thomas,9,u,2484,left,left,TRUE,1,"now, if you ran away and let go it would come flying back and hit me wouldn't it?"3,215,come,11,NULL,11,3,MOTHER,FALSE,Thomas,9,u,2484,left,left,TRUE,1,"now, if you ran away and let go it would come flying back and hit me wouldn't it?"3,207,flying,11,NULL,12,3,MOTHER,FALSE,Thomas,9,u,2484,left,left,TRUE,1,"now, if you ran away and let go it would come flying back and hit me wouldn't it?"3,203,back,11,NULL,13,3,MOTHER,FALSE,Thomas,9,u,2484,left,left,TRUE,1,"now, if you ran away and let go it would come flying back and hit me wouldn't it?"3,208,and,11,NULL,14,3,MOTHER,FALSE,Thomas,9,u,2484,left,left,TRUE,1,"now, if you ran away and let go it would come flying back and hit me wouldn't it?"3,197,hit,11,NULL,15,3,MOTHER,FALSE,Thomas,9,u,2484,left,left,TRUE,1,"now, if you ran away and let go it would come flying back and hit me wouldn't it?"3,182,me,11,NULL,16,3,MOTHER,FALSE,Thomas,9,u,2484,left,left,TRUE,1,"now, if you ran away and let go it would come flying back and hit me wouldn't it?"3,181,wouldn't,11,NULL,17,3,MOTHER,FALSE,Thomas,9,u,2484,left,left,TRUE,1,"now, if you ran away and let go it would come flying back and hit me wouldn't it?"3,215,it?,11,NULL,18,3,MOTHER,FALSE,Thomas,9,u,2484,left,left,TRUE,1,"now, if you ran away and let go it would come flying back and hit me wouldn't it?"3,629,"bang,",11,NULL,1,4,CHILD,FALSE,Thomas,9,u,2484,left,left,TRUE,1,"bang, bang, bang."3,208,"bang,",11,NULL,2,4,CHILD,FALSE,Thomas,9,u,2484,left,left,TRUE,1,"bang, bang, bang."3,204,bang.,11,NULL,3,4,CHILD,FALSE,Thomas,9,u,2484,left,left,TRUE,1,"bang, bang, bang."3,574,"no,",11,NULL,1,5,MOTHER,FALSE,Thomas,9,u,2484,left,left,TRUE,1,"no, bring it back to me, Thomas, please."3,221,bring,11,NULL,2,5,MOTHER,FALSE,Thomas,9,u,2484,left,left,TRUE,1,"no, bring it back to me, Thomas, please."3,218,it,11,NULL,3,5,MOTHER,FALSE,Thomas,9,u,2484,left,left,TRUE,1,"no, bring it back to me, Thomas, please."3,231,back,11,NULL,4,5,MOTHER,FALSE,Thomas,9,u,2484,left,left,TRUE,1,"no, bring it back to me, Thomas, please."3,216,to,11,NULL,5,5,MOTHER,FALSE,Thomas,9,u,2484,left,left,TRUE,1,"no, bring it back to me, Thomas, please."3,226,"me,",11,NULL,6,5,MOTHER,FALSE,Thomas,9,u,2484,left,left,TRUE,1,"no, bring it back to me, Thomas, please."3,230,"Thomas,",11,NULL,7,5,MOTHER,FALSE,Thomas,9,u,2484,left,left,TRUE,1,"no, bring it back to me, Thomas, please."3,207,please.,11,NULL,8,5,MOTHER,FALSE,Thomas,9,u,2484,left,left,TRUE,1,"no, bring it back to me, Thomas, please."3,797,I'm,11,NULL,1,6,CHILD,FALSE,Thomas,9,u,2484,left,left,TRUE,1,"I'm just putting out the fire, psst, and the hose is here."3,198,just,11,NULL,2,6,CHILD,FALSE,Thomas,9,u,2484,left,left,TRUE,1,"I'm just putting out the fire, psst, and the hose is here."3,178,putting,11,NULL,3,6,CHILD,FALSE,Thomas,9,u,2484,left,left,TRUE,1,"I'm just putting out the fire, psst, and the hose is here."3,192,out,11,NULL,4,6,CHILD,FALSE,Thomas,9,u,2484,left,left,TRUE,1,"I'm just putting out the fire, psst, and the hose is here."3,185,the,11,NULL,5,6,CHILD,FALSE,Thomas,9,u,2484,left,left,TRUE,1,"I'm just putting out the fire, psst, and the hose is here."3,202,"fire,",11,NULL,6,6,CHILD,FALSE,Thomas,9,u,2484,left,left,TRUE,1,"I'm just putting out the fire, psst, and the hose is here."3,186,"psst,",11,NULL,7,6,CHILD,FALSE,Thomas,9,u,2484,left,left,TRUE,1,"I'm just putting out the fire, psst, and the hose is here."3,193,and,11,NULL,8,6,CHILD,FALSE,Thomas,9,u,2484,left,left,TRUE,1,"I'm just putting out the fire, psst, and the hose is here."3,197,the,11,NULL,9,6,CHILD,FALSE,Thomas,9,u,2484,left,left,TRUE,1,"I'm just putting out the fire, psst, and the hose is here."3,192,hose,11,NULL,10,6,CHILD,FALSE,Thomas,9,u,2484,left,left,TRUE,1,"I'm just putting out the fire, psst, and the hose is here."3,190,is,11,NULL,11,6,CHILD,FALSE,Thomas,9,u,2484,left,left,TRUE,1,"I'm just putting out the fire, psst, and the hose is here."3,258,here.,11,NULL,12,6,CHILD,FALSE,Thomas,9,u,2484,left,left,TRUE,1,"I'm just putting out the fire, psst, and the hose is here."3,561,I,11,NULL,1,7,MOTHER,FALSE,Thomas,9,u,2484,left,left,TRUE,1,I thought you would turn it into a hosepipe because it's a bit like a curly cable isn't it?3,205,thought,11,NULL,2,7,MOTHER,FALSE,Thomas,9,u,2484,left,left,TRUE,1,I thought you would turn it into a hosepipe because it's a bit like a curly cable isn't it?3,198,you,11,NULL,3,7,MOTHER,FALSE,Thomas,9,u,2484,left,left,TRUE,1,I thought you would turn it into a hosepipe because it's a bit like a curly cable isn't it?3,189,would,11,NULL,4,7,MOTHER,FALSE,Thomas,9,u,2484,left,left,TRUE,1,I thought you would turn it into a hosepipe because it's a bit like a curly cable isn't it?3,209,turn,11,NULL,5,7,MOTHER,FALSE,Thomas,9,u,2484,left,left,TRUE,1,I thought you would turn it into a hosepipe because it's a bit like a curly cable isn't it?3,200,it,11,NULL,6,7,MOTHER,FALSE,Thomas,9,u,2484,left,left,TRUE,1,I thought you would turn it into a hosepipe because it's a bit like a curly cable isn't it?3,199,into,11,NULL,7,7,MOTHER,FALSE,Thomas,9,u,2484,left,left,TRUE,1,I thought you would turn it into a hosepipe because it's a bit like a curly cable isn't it?3,197,a,11,NULL,8,7,MOTHER,FALSE,Thomas,9,u,2484,left,left,TRUE,1,I thought you would turn it into a hosepipe because it's a bit like a curly cable isn't it?3,212,hosepipe,11,NULL,9,7,MOTHER,FALSE,Thomas,9,u,2484,left,left,TRUE,1,I thought you would turn it into a hosepipe because it's a bit like a curly cable isn't it?3,225,because,11,NULL,10,7,MOTHER,FALSE,Thomas,9,u,2484,left,left,TRUE,1,I thought you would turn it into a hosepipe because it's a bit like a curly cable isn't it?3,229,it's,11,NULL,11,7,MOTHER,FALSE,Thomas,9,u,2484,left,left,TRUE,1,I thought you would turn it into a hosepipe because it's a bit like a curly cable isn't it?3,212,a,11,NULL,12,7,MOTHER,FALSE,Thomas,9,u,2484,left,left,TRUE,1,I thought you would turn it into a hosepipe because it's a bit like a curly cable isn't it?3,207,bit,11,NULL,13,7,MOTHER,FALSE,Thomas,9,u,2484,left,left,TRUE,1,I thought you would turn it into a hosepipe because it's a bit like a curly cable isn't it?3,196,like,11,NULL,14,7,MOTHER,FALSE,Thomas,9,u,2484,left,left,TRUE,1,I thought you would turn it into a hosepipe because it's a bit like a curly cable isn't it?3,176,a,11,NULL,15,7,MOTHER,FALSE,Thomas,9,u,2484,left,left,TRUE,1,I thought you would turn it into a hosepipe because it's a bit like a curly cable isn't it?3,192,curly,11,NULL,16,7,MOTHER,FALSE,Thomas,9,u,2484,left,left,TRUE,1,I thought you would turn it into a hosepipe because it's a bit like a curly cable isn't it?3,185,cable,11,NULL,17,7,MOTHER,FALSE,Thomas,9,u,2484,left,left,TRUE,1,I thought you would turn it into a hosepipe because it's a bit like a curly cable isn't it?3,207,isn't,11,NULL,18,7,MOTHER,FALSE,Thomas,9,u,2484,left,left,TRUE,1,I thought you would turn it into a hosepipe because it's a bit like a curly cable isn't it?3,301,it?,11,NULL,19,7,MOTHER,FALSE,Thomas,9,u,2484,left,left,TRUE,1,I thought you would turn it into a hosepipe because it's a bit like a curly cable isn't it?2,710,why,12,NA,1,1,MOTHER,FALSE,Thomas,10,g,1773,left,left,TRUE,1,why are you licking your lips?2,252,are,12,NULL,2,1,MOTHER,FALSE,Thomas,10,g,1773,left,left,TRUE,1,why are you licking your lips?2,229,you,12,NULL,3,1,MOTHER,FALSE,Thomas,10,g,1773,left,left,TRUE,1,why are you licking your lips?2,217,licking,12,NULL,4,1,MOTHER,FALSE,Thomas,10,g,1773,left,left,TRUE,1,why are you licking your lips?2,213,your,12,NULL,5,1,MOTHER,FALSE,Thomas,10,g,1773,left,left,TRUE,1,why are you licking your lips?2,232,lips?,12,NULL,6,1,MOTHER,FALSE,Thomas,10,g,1773,left,left,TRUE,1,why are you licking your lips?2,519,because,12,ate,1,2,CHILD,TRUE,Thomas,10,g,1773,left,left,TRUE,1,because I ate some of that.2,178,I,12,ate,2,2,CHILD,TRUE,Thomas,10,g,1773,left,left,TRUE,1,because I ate some of that.2,176,ate,12,ate,3,2,CHILD,TRUE,Thomas,10,g,1773,left,left,TRUE,1,because I ate some of that.2,195,some,12,ate,4,2,CHILD,TRUE,Thomas,10,g,1773,left,left,TRUE,1,because I ate some of that.2,197,of,12,ate,5,2,CHILD,TRUE,Thomas,10,g,1773,left,left,TRUE,1,because I ate some of that.2,466,that.,12,ate,6,2,CHILD,TRUE,Thomas,10,g,1773,left,left,TRUE,1,because I ate some of that.2,460,have,12,NULL,1,3,MOTHER,FALSE,Thomas,10,g,1773,left,left,TRUE,1,have you?2,319,you?,12,NULL,2,3,MOTHER,FALSE,Thomas,10,g,1773,left,left,TRUE,1,have you?2,340,yum.,12,NULL,1,4,CHILD,FALSE,Thomas,10,g,1773,left,left,TRUE,1,yum.2,489,we've,12,NULL,1,5,MOTHER,FALSE,Thomas,10,g,1773,left,left,TRUE,1,we've got to keep these buns upright otherwise the icing all drops off onto the floor.2,240,got,12,NULL,2,5,MOTHER,FALSE,Thomas,10,g,1773,left,left,TRUE,1,we've got to keep these buns upright otherwise the icing all drops off onto the floor.2,219,to,12,NULL,3,5,MOTHER,FALSE,Thomas,10,g,1773,left,left,TRUE,1,we've got to keep these buns upright otherwise the icing all drops off onto the floor.2,208,keep,12,NULL,4,5,MOTHER,FALSE,Thomas,10,g,1773,left,left,TRUE,1,we've got to keep these buns upright otherwise the icing all drops off onto the floor.2,224,these,12,NULL,5,5,MOTHER,FALSE,Thomas,10,g,1773,left,left,TRUE,1,we've got to keep these buns upright otherwise the icing all drops off onto the floor.2,241,buns,12,NULL,6,5,MOTHER,FALSE,Thomas,10,g,1773,left,left,TRUE,1,we've got to keep these buns upright otherwise the icing all drops off onto the floor.2,242,upright,12,NULL,7,5,MOTHER,FALSE,Thomas,10,g,1773,left,left,TRUE,1,we've got to keep these buns upright otherwise the icing all drops off onto the floor.2,244,otherwise,12,NULL,8,5,MOTHER,FALSE,Thomas,10,g,1773,left,left,TRUE,1,we've got to keep these buns upright otherwise the icing all drops off onto the floor.2,266,the,12,NULL,9,5,MOTHER,FALSE,Thomas,10,g,1773,left,left,TRUE,1,we've got to keep these buns upright otherwise the icing all drops off onto the floor.2,334,icing,12,NULL,10,5,MOTHER,FALSE,Thomas,10,g,1773,left,left,TRUE,1,we've got to keep these buns upright otherwise the icing all drops off onto the floor.2,252,all,12,NULL,11,5,MOTHER,FALSE,Thomas,10,g,1773,left,left,TRUE,1,we've got to keep these buns upright otherwise the icing all drops off onto the floor.2,278,drops,12,NULL,12,5,MOTHER,FALSE,Thomas,10,g,1773,left,left,TRUE,1,we've got to keep these buns upright otherwise the icing all drops off onto the floor.2,247,off,12,NULL,13,5,MOTHER,FALSE,Thomas,10,g,1773,left,left,TRUE,1,we've got to keep these buns upright otherwise the icing all drops off onto the floor.2,275,onto,12,NULL,14,5,MOTHER,FALSE,Thomas,10,g,1773,left,left,TRUE,1,we've got to keep these buns upright otherwise the icing all drops off onto the floor.2,245,the,12,NULL,15,5,MOTHER,FALSE,Thomas,10,g,1773,left,left,TRUE,1,we've got to keep these buns upright otherwise the icing all drops off onto the floor.2,246,floor.,12,NULL,16,5,MOTHER,FALSE,Thomas,10,g,1773,left,left,TRUE,1,we've got to keep these buns upright otherwise the icing all drops off onto the floor.2,622,okay.,12,NULL,1,6,CHILD,FALSE,Thomas,10,g,1773,left,left,TRUE,1,okay.11,6102,spot,14,NA,1,1,MOTHER,FALSE,Fraser,11,g,2739,left,left,TRUE,1,spot cookies?11,433,cookies?,14,NULL,2,1,MOTHER,FALSE,Fraser,11,g,2739,left,left,TRUE,1,spot cookies?11,510,yeah.,14,NULL,1,2,CHILD,FALSE,Fraser,11,g,2739,left,left,TRUE,1,yeah.11,442,I,14,NULL,1,3,MOTHER,FALSE,Fraser,11,g,2739,left,left,TRUE,1,I think they're chocolate chip cookies.11,203,think,14,NULL,2,3,MOTHER,FALSE,Fraser,11,g,2739,left,left,TRUE,1,I think they're chocolate chip cookies.11,190,they're,14,NULL,3,3,MOTHER,FALSE,Fraser,11,g,2739,left,left,TRUE,1,I think they're chocolate chip cookies.11,211,chocolate,14,NULL,4,3,MOTHER,FALSE,Fraser,11,g,2739,left,left,TRUE,1,I think they're chocolate chip cookies.11,299,chip,14,NULL,5,3,MOTHER,FALSE,Fraser,11,g,2739,left,left,TRUE,1,I think they're chocolate chip cookies.11,206,cookies.,14,NULL,6,3,MOTHER,FALSE,Fraser,11,g,2739,left,left,TRUE,1,I think they're chocolate chip cookies.11,446,look,14,woke,1,4,CHILD,TRUE,Fraser,11,g,2739,left,left,TRUE,1,look he woke up.11,222,he,14,woke,2,4,CHILD,TRUE,Fraser,11,g,2739,left,left,TRUE,1,look he woke up.11,180,woke,14,woke,3,4,CHILD,TRUE,Fraser,11,g,2739,left,left,TRUE,1,look he woke up.11,171,up.,14,woke,4,4,CHILD,TRUE,Fraser,11,g,2739,left,left,TRUE,1,look he woke up.11,428,has,14,NULL,1,5,MOTHER,FALSE,Fraser,11,g,2739,left,left,TRUE,1,has he woken up? and what's he doing now?11,198,he,14,NULL,2,5,MOTHER,FALSE,Fraser,11,g,2739,left,left,TRUE,1,has he woken up? and what's he doing now?11,179,woken,14,NULL,3,5,MOTHER,FALSE,Fraser,11,g,2739,left,left,TRUE,1,has he woken up? and what's he doing now?11,176,up?,14,NULL,4,5,MOTHER,FALSE,Fraser,11,g,2739,left,left,TRUE,1,has he woken up? and what's he doing now?11,178,and,14,NULL,5,5,MOTHER,FALSE,Fraser,11,g,2739,left,left,TRUE,1,has he woken up? and what's he doing now?11,181,what's,14,NULL,6,5,MOTHER,FALSE,Fraser,11,g,2739,left,left,TRUE,1,has he woken up? and what's he doing now?11,176,he,14,NULL,7,5,MOTHER,FALSE,Fraser,11,g,2739,left,left,TRUE,1,has he woken up? and what's he doing now?11,162,doing,14,NULL,8,5,MOTHER,FALSE,Fraser,11,g,2739,left,left,TRUE,1,has he woken up? and what's he doing now?11,186,now?,14,NULL,9,5,MOTHER,FALSE,Fraser,11,g,2739,left,left,TRUE,1,has he woken up? and what's he doing now?11,446,doing,14,NULL,1,6,CHILD,FALSE,Fraser,11,g,2739,left,left,TRUE,1,doing the window.11,206,the,14,NULL,2,6,CHILD,FALSE,Fraser,11,g,2739,left,left,TRUE,1,doing the window.11,169,window.,14,NULL,3,6,CHILD,FALSE,Fraser,11,g,2739,left,left,TRUE,1,doing the window.11,184,he's,14,NULL,1,7,MOTHER,FALSE,Fraser,11,g,2739,left,left,TRUE,1,he's doing the windows?11,527,doing,14,NULL,2,7,MOTHER,FALSE,Fraser,11,g,2739,left,left,TRUE,1,he's doing the windows?11,201,the,14,NULL,3,7,MOTHER,FALSE,Fraser,11,g,2739,left,left,TRUE,1,he's doing the windows?11,224,windows?,14,NULL,4,7,MOTHER,FALSE,Fraser,11,g,2739,left,left,TRUE,1,he's doing the windows?17,593,it,15,NA,1,1,CHILD,FALSE,Fraser,12,u,1833,left,left,TRUE,1,it hurts.17,384,hurts.,15,NULL,2,1,CHILD,FALSE,Fraser,12,u,1833,left,left,TRUE,1,it hurts.17,344,it,15,NULL,1,2,MOTHER,FALSE,Fraser,12,u,1833,left,left,TRUE,1,it hurts?17,373,hurts?,15,NULL,2,2,MOTHER,FALSE,Fraser,12,u,1833,left,left,TRUE,1,it hurts?17,492,ow.,15,NULL,1,3,CHILD,FALSE,Fraser,12,u,1833,left,left,TRUE,1,ow.17,471,that's,15,NULL,1,4,MOTHER,FALSE,Fraser,12,u,1833,left,left,TRUE,1,"that's not very good, is it?"17,221,not,15,NULL,2,4,MOTHER,FALSE,Fraser,12,u,1833,left,left,TRUE,1,"that's not very good, is it?"17,177,very,15,NULL,3,4,MOTHER,FALSE,Fraser,12,u,1833,left,left,TRUE,1,"that's not very good, is it?"17,184,"good,",15,NULL,4,4,MOTHER,FALSE,Fraser,12,u,1833,left,left,TRUE,1,"that's not very good, is it?"17,178,is,15,NULL,5,4,MOTHER,FALSE,Fraser,12,u,1833,left,left,TRUE,1,"that's not very good, is it?"17,342,it?,15,NULL,6,4,MOTHER,FALSE,Fraser,12,u,1833,left,left,TRUE,1,"that's not very good, is it?"17,378,Little,15,hurted,1,5,CHILD,TRUE,Fraser,12,u,1833,left,left,TRUE,1,Little Bear hurted it.17,192,Bear,15,hurted,2,5,CHILD,TRUE,Fraser,12,u,1833,left,left,TRUE,1,Little Bear hurted it.17,169,hurted,15,hurted,3,5,CHILD,TRUE,Fraser,12,u,1833,left,left,TRUE,1,Little Bear hurted it.17,371,it.,15,hurted,4,5,CHILD,TRUE,Fraser,12,u,1833,left,left,TRUE,1,Little Bear hurted it.17,424,Little,15,NULL,1,6,MOTHER,FALSE,Fraser,12,u,1833,left,left,TRUE,1,Little Bear hurt it?17,235,Bear,15,NULL,2,6,MOTHER,FALSE,Fraser,12,u,1833,left,left,TRUE,1,Little Bear hurt it?17,180,hurt,15,NULL,3,6,MOTHER,FALSE,Fraser,12,u,1833,left,left,TRUE,1,Little Bear hurt it?17,405,it?,15,NULL,4,6,MOTHER,FALSE,Fraser,12,u,1833,left,left,TRUE,1,Little Bear hurt it?17,538,yeah.,15,NULL,1,7,CHILD,FALSE,Fraser,12,u,1833,left,left,TRUE,1,yeah.12,669,look,16,NA,1,1,MOTHER,FALSE,Fraser,13,u,2113,right,right,TRUE,1,look at all these pictures that people have drawn as well.12,371,at,16,NULL,2,1,MOTHER,FALSE,Fraser,13,u,2113,right,right,TRUE,1,look at all these pictures that people have drawn as well.12,212,all,16,NULL,3,1,MOTHER,FALSE,Fraser,13,u,2113,right,right,TRUE,1,look at all these pictures that people have drawn as well.12,184,these,16,NULL,4,1,MOTHER,FALSE,Fraser,13,u,2113,right,right,TRUE,1,look at all these pictures that people have drawn as well.12,215,pictures,16,NULL,5,1,MOTHER,FALSE,Fraser,13,u,2113,right,right,TRUE,1,look at all these pictures that people have drawn as well.12,204,that,16,NULL,6,1,MOTHER,FALSE,Fraser,13,u,2113,right,right,TRUE,1,look at all these pictures that people have drawn as well.12,198,people,16,NULL,7,1,MOTHER,FALSE,Fraser,13,u,2113,right,right,TRUE,1,look at all these pictures that people have drawn as well.12,199,have,16,NULL,8,1,MOTHER,FALSE,Fraser,13,u,2113,right,right,TRUE,1,look at all these pictures that people have drawn as well.12,209,drawn,16,NULL,9,1,MOTHER,FALSE,Fraser,13,u,2113,right,right,TRUE,1,look at all these pictures that people have drawn as well.12,207,as,16,NULL,10,1,MOTHER,FALSE,Fraser,13,u,2113,right,right,TRUE,1,look at all these pictures that people have drawn as well.12,216,well.,16,NULL,11,1,MOTHER,FALSE,Fraser,13,u,2113,right,right,TRUE,1,look at all these pictures that people have drawn as well.12,433,who,16,drawed,1,2,CHILD,TRUE,Fraser,13,u,2113,right,right,TRUE,1,who drawed those?12,213,drawed,16,drawed,2,2,CHILD,TRUE,Fraser,13,u,2113,right,right,TRUE,1,who drawed those?12,185,those?,16,drawed,3,2,CHILD,TRUE,Fraser,13,u,2113,right,right,TRUE,1,who drawed those?12,498,I,16,NULL,1,3,MOTHER,FALSE,Fraser,13,u,2113,right,right,TRUE,1,I don't know.12,191,don't,16,NULL,2,3,MOTHER,FALSE,Fraser,13,u,2113,right,right,TRUE,1,I don't know.12,352,know.,16,NULL,3,3,MOTHER,FALSE,Fraser,13,u,2113,right,right,TRUE,1,I don't know.12,428,was,16,NULL,1,4,CHILD,FALSE,Fraser,13,u,2113,right,right,TRUE,1,was it Blue?12,213,it,16,NULL,2,4,CHILD,FALSE,Fraser,13,u,2113,right,right,TRUE,1,was it Blue?12,207,Blue?,16,NULL,3,4,CHILD,FALSE,Fraser,13,u,2113,right,right,TRUE,1,was it Blue?12,557,"no,",16,NULL,1,5,MOTHER,FALSE,Fraser,13,u,2113,right,right,TRUE,1,"no, it was children, different children."12,248,it,16,NULL,2,5,MOTHER,FALSE,Fraser,13,u,2113,right,right,TRUE,1,"no, it was children, different children."12,215,was,16,NULL,3,5,MOTHER,FALSE,Fraser,13,u,2113,right,right,TRUE,1,"no, it was children, different children."12,219,"children,",16,NULL,4,5,MOTHER,FALSE,Fraser,13,u,2113,right,right,TRUE,1,"no, it was children, different children."12,223,different,16,NULL,5,5,MOTHER,FALSE,Fraser,13,u,2113,right,right,TRUE,1,"no, it was children, different children."12,247,children.,16,NULL,6,5,MOTHER,FALSE,Fraser,13,u,2113,right,right,TRUE,1,"no, it was children, different children."12,551,what,16,NULL,1,6,CHILD,FALSE,Fraser,13,u,2113,right,right,TRUE,1,what different children?12,230,different,16,NULL,2,6,CHILD,FALSE,Fraser,13,u,2113,right,right,TRUE,1,what different children?12,168,children?,16,NULL,3,6,CHILD,FALSE,Fraser,13,u,2113,right,right,TRUE,1,what different children?12,500,just,16,NULL,1,7,MOTHER,FALSE,Fraser,13,u,2113,right,right,TRUE,1,just children that have sent them in.12,201,children,16,NULL,2,7,MOTHER,FALSE,Fraser,13,u,2113,right,right,TRUE,1,just children that have sent them in.12,194,that,16,NULL,3,7,MOTHER,FALSE,Fraser,13,u,2113,right,right,TRUE,1,just children that have sent them in.12,213,have,16,NULL,4,7,MOTHER,FALSE,Fraser,13,u,2113,right,right,TRUE,1,just children that have sent them in.12,201,sent,16,NULL,5,7,MOTHER,FALSE,Fraser,13,u,2113,right,right,TRUE,1,just children that have sent them in.12,186,them,16,NULL,6,7,MOTHER,FALSE,Fraser,13,u,2113,right,right,TRUE,1,just children that have sent them in.12,307,in.,16,NULL,7,7,MOTHER,FALSE,Fraser,13,u,2113,right,right,TRUE,1,just children that have sent them in.14,695,is,17,NA,1,1,MOTHER,FALSE,Fraser,14,g,2751,right,right,TRUE,1,is that a purple one?14,189,that,17,NULL,2,1,MOTHER,FALSE,Fraser,14,g,2751,right,right,TRUE,1,is that a purple one?14,192,a,17,NULL,3,1,MOTHER,FALSE,Fraser,14,g,2751,right,right,TRUE,1,is that a purple one?14,204,purple,17,NULL,4,1,MOTHER,FALSE,Fraser,14,g,2751,right,right,TRUE,1,is that a purple one?14,299,one?,17,NULL,5,1,MOTHER,FALSE,Fraser,14,g,2751,right,right,TRUE,1,is that a purple one?14,451,"yeah,",17,NULL,1,2,CHILD,FALSE,Fraser,14,g,2751,right,right,TRUE,1,"yeah, that's the purple one."14,228,that's,17,NULL,2,2,CHILD,FALSE,Fraser,14,g,2751,right,right,TRUE,1,"yeah, that's the purple one."14,209,the,17,NULL,3,2,CHILD,FALSE,Fraser,14,g,2751,right,right,TRUE,1,"yeah, that's the purple one."14,205,purple,17,NULL,4,2,CHILD,FALSE,Fraser,14,g,2751,right,right,TRUE,1,"yeah, that's the purple one."14,221,one.,17,NULL,5,2,CHILD,FALSE,Fraser,14,g,2751,right,right,TRUE,1,"yeah, that's the purple one."14,415,and,17,NULL,1,3,MOTHER,FALSE,Fraser,14,g,2751,right,right,TRUE,1,and there's a purply one.14,192,there's,17,NULL,2,3,MOTHER,FALSE,Fraser,14,g,2751,right,right,TRUE,1,and there's a purply one.14,206,a,17,NULL,3,3,MOTHER,FALSE,Fraser,14,g,2751,right,right,TRUE,1,and there's a purply one.14,181,purply,17,NULL,4,3,MOTHER,FALSE,Fraser,14,g,2751,right,right,TRUE,1,and there's a purply one.14,183,one.,17,NULL,5,3,MOTHER,FALSE,Fraser,14,g,2751,right,right,TRUE,1,and there's a purply one.14,620,whoa.,17,went,1,4,CHILD,TRUE,Fraser,14,g,2751,right,right,TRUE,1,whoa. I nearly went in the mud.14,181,I,17,went,2,4,CHILD,TRUE,Fraser,14,g,2751,right,right,TRUE,1,whoa. I nearly went in the mud.14,199,nearly,17,went,3,4,CHILD,TRUE,Fraser,14,g,2751,right,right,TRUE,1,whoa. I nearly went in the mud.14,193,went,17,went,4,4,CHILD,TRUE,Fraser,14,g,2751,right,right,TRUE,1,whoa. I nearly went in the mud.14,197,in,17,went,5,4,CHILD,TRUE,Fraser,14,g,2751,right,right,TRUE,1,whoa. I nearly went in the mud.14,191,the,17,went,6,4,CHILD,TRUE,Fraser,14,g,2751,right,right,TRUE,1,whoa. I nearly went in the mud.14,194,mud.,17,went,7,4,CHILD,TRUE,Fraser,14,g,2751,right,right,TRUE,1,whoa. I nearly went in the mud.14,313,"yeah,",17,NULL,1,5,MOTHER,FALSE,Fraser,14,g,2751,right,right,TRUE,1,"yeah, you did, didn't you?"14,211,you,17,NULL,2,5,MOTHER,FALSE,Fraser,14,g,2751,right,right,TRUE,1,"yeah, you did, didn't you?"14,181,"did,",17,NULL,3,5,MOTHER,FALSE,Fraser,14,g,2751,right,right,TRUE,1,"yeah, you did, didn't you?"14,185,didn't,17,NULL,4,5,MOTHER,FALSE,Fraser,14,g,2751,right,right,TRUE,1,"yeah, you did, didn't you?"14,176,you?,17,NULL,5,5,MOTHER,FALSE,Fraser,14,g,2751,right,right,TRUE,1,"yeah, you did, didn't you?"15,677,are,18,NA,1,1,CHILD,FALSE,Fraser,15,u,830,left,left,TRUE,1,are these are shorts?15,178,these,18,NULL,2,1,CHILD,FALSE,Fraser,15,u,830,left,left,TRUE,1,are these are shorts?15,171,are,18,NULL,3,1,CHILD,FALSE,Fraser,15,u,830,left,left,TRUE,1,are these are shorts?15,200,shorts?,18,NULL,4,1,CHILD,FALSE,Fraser,15,u,830,left,left,TRUE,1,are these are shorts?15,572,"yeah,",18,NULL,1,2,MOTHER,FALSE,Fraser,15,u,830,left,left,TRUE,1,"yeah, they're shorts, aren't they?"15,166,they're,18,NULL,2,2,MOTHER,FALSE,Fraser,15,u,830,left,left,TRUE,1,"yeah, they're shorts, aren't they?"15,177,"shorts,",18,NULL,3,2,MOTHER,FALSE,Fraser,15,u,830,left,left,TRUE,1,"yeah, they're shorts, aren't they?"15,163,aren't,18,NULL,4,2,MOTHER,FALSE,Fraser,15,u,830,left,left,TRUE,1,"yeah, they're shorts, aren't they?"15,194,they?,18,NULL,5,2,MOTHER,FALSE,Fraser,15,u,830,left,left,TRUE,1,"yeah, they're shorts, aren't they?"15,484,they're,18,NULL,1,3,CHILD,FALSE,Fraser,15,u,830,left,left,TRUE,1,they're like shorts.15,196,like,18,NULL,2,3,CHILD,FALSE,Fraser,15,u,830,left,left,TRUE,1,they're like shorts.15,174,shorts.,18,NULL,3,3,CHILD,FALSE,Fraser,15,u,830,left,left,TRUE,1,they're like shorts.15,474,they,18,NULL,1,4,MOTHER,FALSE,Fraser,15,u,830,left,left,TRUE,1,they are shorts.15,173,are,18,NULL,2,4,MOTHER,FALSE,Fraser,15,u,830,left,left,TRUE,1,they are shorts.15,160,shorts.,18,NULL,3,4,MOTHER,FALSE,Fraser,15,u,830,left,left,TRUE,1,they are shorts.15,666,we,18,goed,1,5,CHILD,TRUE,Fraser,15,u,830,left,left,TRUE,1,"we got some when we goed to the beach, didn't we?"15,229,got,18,goed,2,5,CHILD,TRUE,Fraser,15,u,830,left,left,TRUE,1,"we got some when we goed to the beach, didn't we?"15,188,some,18,goed,3,5,CHILD,TRUE,Fraser,15,u,830,left,left,TRUE,1,"we got some when we goed to the beach, didn't we?"15,194,when,18,goed,4,5,CHILD,TRUE,Fraser,15,u,830,left,left,TRUE,1,"we got some when we goed to the beach, didn't we?"15,224,we,18,goed,5,5,CHILD,TRUE,Fraser,15,u,830,left,left,TRUE,1,"we got some when we goed to the beach, didn't we?"15,201,goed,18,goed,6,5,CHILD,TRUE,Fraser,15,u,830,left,left,TRUE,1,"we got some when we goed to the beach, didn't we?"15,200,to,18,goed,7,5,CHILD,TRUE,Fraser,15,u,830,left,left,TRUE,1,"we got some when we goed to the beach, didn't we?"15,194,the,18,goed,8,5,CHILD,TRUE,Fraser,15,u,830,left,left,TRUE,1,"we got some when we goed to the beach, didn't we?"15,207,"beach,",18,goed,9,5,CHILD,TRUE,Fraser,15,u,830,left,left,TRUE,1,"we got some when we goed to the beach, didn't we?"15,184,didn't,18,goed,10,5,CHILD,TRUE,Fraser,15,u,830,left,left,TRUE,1,"we got some when we goed to the beach, didn't we?"15,177,we?,18,goed,11,5,CHILD,TRUE,Fraser,15,u,830,left,left,TRUE,1,"we got some when we goed to the beach, didn't we?"15,524,that's,18,NULL,1,6,MOTHER,FALSE,Fraser,15,u,830,left,left,TRUE,1,that's right.15,275,right.,18,NULL,2,6,MOTHER,FALSE,Fraser,15,u,830,left,left,TRUE,1,that's right.13,629,we,19,NA,1,1,MOTHER,FALSE,Fraser,16,u,2441,right,right,TRUE,1,"we put batteries in it, didn't we?"13,226,put,19,NULL,2,1,MOTHER,FALSE,Fraser,16,u,2441,right,right,TRUE,1,"we put batteries in it, didn't we?"13,192,batteries,19,NULL,3,1,MOTHER,FALSE,Fraser,16,u,2441,right,right,TRUE,1,"we put batteries in it, didn't we?"13,197,in,19,NULL,4,1,MOTHER,FALSE,Fraser,16,u,2441,right,right,TRUE,1,"we put batteries in it, didn't we?"13,214,"it,",19,NULL,5,1,MOTHER,FALSE,Fraser,16,u,2441,right,right,TRUE,1,"we put batteries in it, didn't we?"13,193,didn't,19,NULL,6,1,MOTHER,FALSE,Fraser,16,u,2441,right,right,TRUE,1,"we put batteries in it, didn't we?"13,231,we?,19,NULL,7,1,MOTHER,FALSE,Fraser,16,u,2441,right,right,TRUE,1,"we put batteries in it, didn't we?"13,433,it,19,NULL,1,2,CHILD,FALSE,Fraser,16,u,2441,right,right,TRUE,1,it didn't work?13,187,didn't,19,NULL,2,2,CHILD,FALSE,Fraser,16,u,2441,right,right,TRUE,1,it didn't work?13,156,work?,19,NULL,3,2,CHILD,FALSE,Fraser,16,u,2441,right,right,TRUE,1,it didn't work?13,449,it,19,NULL,1,3,MOTHER,FALSE,Fraser,16,u,2441,right,right,TRUE,1,"it works now, doesn't it? now that we've put batteries in it."13,183,works,19,NULL,2,3,MOTHER,FALSE,Fraser,16,u,2441,right,right,TRUE,1,"it works now, doesn't it? now that we've put batteries in it."13,192,"now,",19,NULL,3,3,MOTHER,FALSE,Fraser,16,u,2441,right,right,TRUE,1,"it works now, doesn't it? now that we've put batteries in it."13,207,doesn't,19,NULL,4,3,MOTHER,FALSE,Fraser,16,u,2441,right,right,TRUE,1,"it works now, doesn't it? now that we've put batteries in it."13,229,it?,19,NULL,5,3,MOTHER,FALSE,Fraser,16,u,2441,right,right,TRUE,1,"it works now, doesn't it? now that we've put batteries in it."13,231,now,19,NULL,6,3,MOTHER,FALSE,Fraser,16,u,2441,right,right,TRUE,1,"it works now, doesn't it? now that we've put batteries in it."13,227,that,19,NULL,7,3,MOTHER,FALSE,Fraser,16,u,2441,right,right,TRUE,1,"it works now, doesn't it? now that we've put batteries in it."13,198,we've,19,NULL,8,3,MOTHER,FALSE,Fraser,16,u,2441,right,right,TRUE,1,"it works now, doesn't it? now that we've put batteries in it."13,192,put,19,NULL,9,3,MOTHER,FALSE,Fraser,16,u,2441,right,right,TRUE,1,"it works now, doesn't it? now that we've put batteries in it."13,205,batteries,19,NULL,10,3,MOTHER,FALSE,Fraser,16,u,2441,right,right,TRUE,1,"it works now, doesn't it? now that we've put batteries in it."13,195,in,19,NULL,11,3,MOTHER,FALSE,Fraser,16,u,2441,right,right,TRUE,1,"it works now, doesn't it? now that we've put batteries in it."13,352,it.,19,NULL,12,3,MOTHER,FALSE,Fraser,16,u,2441,right,right,TRUE,1,"it works now, doesn't it? now that we've put batteries in it."13,458,who,19,breaked,1,4,CHILD,TRUE,Fraser,16,u,2441,right,right,TRUE,1,who breaked the big truck?13,175,breaked,19,breaked,2,4,CHILD,TRUE,Fraser,16,u,2441,right,right,TRUE,1,who breaked the big truck?13,160,the,19,breaked,3,4,CHILD,TRUE,Fraser,16,u,2441,right,right,TRUE,1,who breaked the big truck?13,157,big,19,breaked,4,4,CHILD,TRUE,Fraser,16,u,2441,right,right,TRUE,1,who breaked the big truck?13,377,truck?,19,breaked,5,4,CHILD,TRUE,Fraser,16,u,2441,right,right,TRUE,1,who breaked the big truck?13,397,nobody,19,NULL,1,5,MOTHER,FALSE,Fraser,16,u,2441,right,right,TRUE,1,"nobody broke it, Fraser."13,216,broke,19,NULL,2,5,MOTHER,FALSE,Fraser,16,u,2441,right,right,TRUE,1,"nobody broke it, Fraser."13,186,"it,",19,NULL,3,5,MOTHER,FALSE,Fraser,16,u,2441,right,right,TRUE,1,"nobody broke it, Fraser."13,399,Fraser.,19,NULL,4,5,MOTHER,FALSE,Fraser,16,u,2441,right,right,TRUE,1,"nobody broke it, Fraser."20,664,it's,20,NA,1,1,CHILD,FALSE,Fraser,17,g,2004,right,right,TRUE,1,"it's not my bouncy anymore, is it?"20,364,not,20,NULL,2,1,CHILD,FALSE,Fraser,17,g,2004,right,right,TRUE,1,"it's not my bouncy anymore, is it?"20,200,my,20,NULL,3,1,CHILD,FALSE,Fraser,17,g,2004,right,right,TRUE,1,"it's not my bouncy anymore, is it?"20,201,bouncy,20,NULL,4,1,CHILD,FALSE,Fraser,17,g,2004,right,right,TRUE,1,"it's not my bouncy anymore, is it?"20,226,"anymore,",20,NULL,5,1,CHILD,FALSE,Fraser,17,g,2004,right,right,TRUE,1,"it's not my bouncy anymore, is it?"20,255,is,20,NULL,6,1,CHILD,FALSE,Fraser,17,g,2004,right,right,TRUE,1,"it's not my bouncy anymore, is it?"20,257,it?,20,NULL,7,1,CHILD,FALSE,Fraser,17,g,2004,right,right,TRUE,1,"it's not my bouncy anymore, is it?"20,463,pardon?,20,NULL,1,2,MOTHER,FALSE,Fraser,17,g,2004,right,right,TRUE,1,pardon?20,470,the,20,took,1,3,CHILD,TRUE,Fraser,17,g,2004,right,right,TRUE,1,"the man took my bouncy castle, didn't he?"20,201,man,20,took,2,3,CHILD,TRUE,Fraser,17,g,2004,right,right,TRUE,1,"the man took my bouncy castle, didn't he?"20,222,took,20,took,3,3,CHILD,TRUE,Fraser,17,g,2004,right,right,TRUE,1,"the man took my bouncy castle, didn't he?"20,230,my,20,took,4,3,CHILD,TRUE,Fraser,17,g,2004,right,right,TRUE,1,"the man took my bouncy castle, didn't he?"20,239,bouncy,20,took,5,3,CHILD,TRUE,Fraser,17,g,2004,right,right,TRUE,1,"the man took my bouncy castle, didn't he?"20,236,"castle,",20,took,6,3,CHILD,TRUE,Fraser,17,g,2004,right,right,TRUE,1,"the man took my bouncy castle, didn't he?"20,242,didn't,20,took,7,3,CHILD,TRUE,Fraser,17,g,2004,right,right,TRUE,1,"the man took my bouncy castle, didn't he?"20,266,he?,20,took,8,3,CHILD,TRUE,Fraser,17,g,2004,right,right,TRUE,1,"the man took my bouncy castle, didn't he?"20,491,he,20,NULL,1,4,MOTHER,FALSE,Fraser,17,g,2004,right,right,TRUE,1,"he did, yeah."20,224,"did,",20,NULL,2,4,MOTHER,FALSE,Fraser,17,g,2004,right,right,TRUE,1,"he did, yeah."20,209,yeah.,20,NULL,3,4,MOTHER,FALSE,Fraser,17,g,2004,right,right,TRUE,1,"he did, yeah."20,498,it's,20,NULL,1,5,CHILD,FALSE,Fraser,17,g,2004,right,right,TRUE,1,"it's not my birthday anymore, is it?"20,213,not,20,NULL,2,5,CHILD,FALSE,Fraser,17,g,2004,right,right,TRUE,1,"it's not my birthday anymore, is it?"20,234,my,20,NULL,3,5,CHILD,FALSE,Fraser,17,g,2004,right,right,TRUE,1,"it's not my birthday anymore, is it?"20,232,birthday,20,NULL,4,5,CHILD,FALSE,Fraser,17,g,2004,right,right,TRUE,1,"it's not my birthday anymore, is it?"20,233,"anymore,",20,NULL,5,5,CHILD,FALSE,Fraser,17,g,2004,right,right,TRUE,1,"it's not my birthday anymore, is it?"20,255,is,20,NULL,6,5,CHILD,FALSE,Fraser,17,g,2004,right,right,TRUE,1,"it's not my birthday anymore, is it?"20,244,it?,20,NULL,7,5,CHILD,FALSE,Fraser,17,g,2004,right,right,TRUE,1,"it's not my birthday anymore, is it?"20,492,"no,",20,NULL,1,6,MOTHER,FALSE,Fraser,17,g,2004,right,right,TRUE,1,"no, your birthday's finished."20,208,your,20,NULL,2,6,MOTHER,FALSE,Fraser,17,g,2004,right,right,TRUE,1,"no, your birthday's finished."20,219,birthday's,20,NULL,3,6,MOTHER,FALSE,Fraser,17,g,2004,right,right,TRUE,1,"no, your birthday's finished."20,232,finished.,20,NULL,4,6,MOTHER,FALSE,Fraser,17,g,2004,right,right,TRUE,1,"no, your birthday's finished."19,608,we'd,21,NA,1,1,MOTHER,FALSE,Fraser,18,u,2266,left,left,TRUE,1,"we'd have to read the story to find out, wouldn't we?"19,224,have,21,NULL,2,1,MOTHER,FALSE,Fraser,18,u,2266,left,left,TRUE,1,"we'd have to read the story to find out, wouldn't we?"19,210,to,21,NULL,3,1,MOTHER,FALSE,Fraser,18,u,2266,left,left,TRUE,1,"we'd have to read the story to find out, wouldn't we?"19,225,read,21,NULL,4,1,MOTHER,FALSE,Fraser,18,u,2266,left,left,TRUE,1,"we'd have to read the story to find out, wouldn't we?"19,202,the,21,NULL,5,1,MOTHER,FALSE,Fraser,18,u,2266,left,left,TRUE,1,"we'd have to read the story to find out, wouldn't we?"19,202,story,21,NULL,6,1,MOTHER,FALSE,Fraser,18,u,2266,left,left,TRUE,1,"we'd have to read the story to find out, wouldn't we?"19,195,to,21,NULL,7,1,MOTHER,FALSE,Fraser,18,u,2266,left,left,TRUE,1,"we'd have to read the story to find out, wouldn't we?"19,205,find,21,NULL,8,1,MOTHER,FALSE,Fraser,18,u,2266,left,left,TRUE,1,"we'd have to read the story to find out, wouldn't we?"19,192,"out,",21,NULL,9,1,MOTHER,FALSE,Fraser,18,u,2266,left,left,TRUE,1,"we'd have to read the story to find out, wouldn't we?"19,197,wouldn't,21,NULL,10,1,MOTHER,FALSE,Fraser,18,u,2266,left,left,TRUE,1,"we'd have to read the story to find out, wouldn't we?"19,198,we?,21,NULL,11,1,MOTHER,FALSE,Fraser,18,u,2266,left,left,TRUE,1,"we'd have to read the story to find out, wouldn't we?"19,483,yeah.,21,NULL,1,2,CHILD,FALSE,Fraser,18,u,2266,left,left,TRUE,1,yeah.19,394,what's,21,NULL,1,3,MOTHER,FALSE,Fraser,18,u,2266,left,left,TRUE,1,what's the matter?19,203,the,21,NULL,2,3,MOTHER,FALSE,Fraser,18,u,2266,left,left,TRUE,1,what's the matter?19,265,matter?,21,NULL,3,3,MOTHER,FALSE,Fraser,18,u,2266,left,left,TRUE,1,what's the matter?19,462,"look,",21,eated,1,4,CHILD,TRUE,Fraser,18,u,2266,left,left,TRUE,1,"look, the cat eated that thing."19,231,the,21,eated,2,4,CHILD,TRUE,Fraser,18,u,2266,left,left,TRUE,1,"look, the cat eated that thing."19,209,cat,21,eated,3,4,CHILD,TRUE,Fraser,18,u,2266,left,left,TRUE,1,"look, the cat eated that thing."19,212,eated,21,eated,4,4,CHILD,TRUE,Fraser,18,u,2266,left,left,TRUE,1,"look, the cat eated that thing."19,236,that,21,eated,5,4,CHILD,TRUE,Fraser,18,u,2266,left,left,TRUE,1,"look, the cat eated that thing."19,230,thing.,21,eated,6,4,CHILD,TRUE,Fraser,18,u,2266,left,left,TRUE,1,"look, the cat eated that thing."19,525,did,21,NULL,1,5,MOTHER,FALSE,Fraser,18,u,2266,left,left,TRUE,1,did it?19,319,it?,21,NULL,2,5,MOTHER,FALSE,Fraser,18,u,2266,left,left,TRUE,1,did it?19,420,yeah.,21,NULL,1,6,CHILD,FALSE,Fraser,18,u,2266,left,left,TRUE,1,yeah.19,499,did,21,NULL,1,7,MOTHER,FALSE,Fraser,18,u,2266,left,left,TRUE,1,did it eat the hamster?19,216,it,21,NULL,2,7,MOTHER,FALSE,Fraser,18,u,2266,left,left,TRUE,1,did it eat the hamster?19,204,eat,21,NULL,3,7,MOTHER,FALSE,Fraser,18,u,2266,left,left,TRUE,1,did it eat the hamster?19,222,the,21,NULL,4,7,MOTHER,FALSE,Fraser,18,u,2266,left,left,TRUE,1,did it eat the hamster?19,212,hamster?,21,NULL,5,7,MOTHER,FALSE,Fraser,18,u,2266,left,left,TRUE,1,did it eat the hamster?16,55247,have,22,NA,1,1,MOTHER,FALSE,Fraser,19,g,2073,left,left,TRUE,1,have you been playing with Joe?16,357,you,22,NULL,2,1,MOTHER,FALSE,Fraser,19,g,2073,left,left,TRUE,1,have you been playing with Joe?16,260,been,22,NULL,3,1,MOTHER,FALSE,Fraser,19,g,2073,left,left,TRUE,1,have you been playing with Joe?16,256,playing,22,NULL,4,1,MOTHER,FALSE,Fraser,19,g,2073,left,left,TRUE,1,have you been playing with Joe?16,294,with,22,NULL,5,1,MOTHER,FALSE,Fraser,19,g,2073,left,left,TRUE,1,have you been playing with Joe?16,186,Joe?,22,NULL,6,1,MOTHER,FALSE,Fraser,19,g,2073,left,left,TRUE,1,have you been playing with Joe?16,178,yeah.,22,NULL,1,2,CHILD,FALSE,Fraser,19,g,2073,left,left,TRUE,1,yeah.16,266,what,22,NULL,1,3,MOTHER,FALSE,Fraser,19,g,2073,left,left,TRUE,1,what were you doing?16,209,were,22,NULL,2,3,MOTHER,FALSE,Fraser,19,g,2073,left,left,TRUE,1,what were you doing?16,238,you,22,NULL,3,3,MOTHER,FALSE,Fraser,19,g,2073,left,left,TRUE,1,what were you doing?16,78,doing?,22,NULL,4,3,MOTHER,FALSE,Fraser,19,g,2073,left,left,TRUE,1,what were you doing?16,231,I,22,NULL,1,4,CHILD,FALSE,Fraser,19,g,2073,left,left,TRUE,1,I did that.16,230,did,22,NULL,2,4,CHILD,FALSE,Fraser,19,g,2073,left,left,TRUE,1,I did that.16,192,that.,22,NULL,3,4,CHILD,FALSE,Fraser,19,g,2073,left,left,TRUE,1,I did that.16,242,did,22,NULL,1,5,MOTHER,FALSE,Fraser,19,g,2073,left,left,TRUE,1,did you?16,265,you?,22,NULL,2,5,MOTHER,FALSE,Fraser,19,g,2073,left,left,TRUE,1,did you?16,226,I,22,sang,1,6,CHILD,TRUE,Fraser,19,g,2073,left,left,TRUE,1,I sang that one.16,209,sang,22,sang,2,6,CHILD,TRUE,Fraser,19,g,2073,left,left,TRUE,1,I sang that one.16,188,that,22,sang,3,6,CHILD,TRUE,Fraser,19,g,2073,left,left,TRUE,1,I sang that one.16,161,one.,22,sang,4,6,CHILD,TRUE,Fraser,19,g,2073,left,left,TRUE,1,I sang that one.16,356,who's,22,NULL,1,7,MOM,FALSE,Fraser,19,g,2073,left,left,TRUE,1,who's Dot Man?16,229,Dot,22,NULL,2,7,MOM,FALSE,Fraser,19,g,2073,left,left,TRUE,1,who's Dot Man?16,123,Man?,22,NULL,3,7,MOM,FALSE,Fraser,19,g,2073,left,left,TRUE,1,who's Dot Man?16,540,somebody,22,NULL,1,8,CHILD,FALSE,Fraser,19,g,2073,left,left,TRUE,1,somebody in the song.16,224,in,22,NULL,2,8,CHILD,FALSE,Fraser,19,g,2073,left,left,TRUE,1,somebody in the song.16,194,the,22,NULL,3,8,CHILD,FALSE,Fraser,19,g,2073,left,left,TRUE,1,somebody in the song.16,311,song.,22,NULL,4,8,CHILD,FALSE,Fraser,19,g,2073,left,left,TRUE,1,somebody in the song.18,572,"Swiper,",23,NA,1,1,CHILD,FALSE,Fraser,20,g,1989,right,right,TRUE,1,"Swiper, no swiping."18,208,no,23,NULL,2,1,CHILD,FALSE,Fraser,20,g,1989,right,right,TRUE,1,"Swiper, no swiping."18,191,swiping.,23,NULL,3,1,CHILD,FALSE,Fraser,20,g,1989,right,right,TRUE,1,"Swiper, no swiping."18,470,that's,23,NULL,1,2,MOTHER,FALSE,Fraser,20,g,1989,right,right,TRUE,1,that's right.18,198,right.,23,NULL,2,2,MOTHER,FALSE,Fraser,20,g,1989,right,right,TRUE,1,that's right.18,178,he,23,NULL,1,3,CHILD,FALSE,Fraser,20,g,1989,right,right,TRUE,1,he said oh man.18,377,said,23,NULL,2,3,CHILD,FALSE,Fraser,20,g,1989,right,right,TRUE,1,he said oh man.18,208,oh,23,NULL,3,3,CHILD,FALSE,Fraser,20,g,1989,right,right,TRUE,1,he said oh man.18,186,man.,23,NULL,4,3,CHILD,FALSE,Fraser,20,g,1989,right,right,TRUE,1,he said oh man.18,376,is,23,NULL,1,4,MOTHER,FALSE,Fraser,20,g,1989,right,right,TRUE,1,is that what he says?18,215,that,23,NULL,2,4,MOTHER,FALSE,Fraser,20,g,1989,right,right,TRUE,1,is that what he says?18,223,what,23,NULL,3,4,MOTHER,FALSE,Fraser,20,g,1989,right,right,TRUE,1,is that what he says?18,167,he,23,NULL,4,4,MOTHER,FALSE,Fraser,20,g,1989,right,right,TRUE,1,is that what he says?18,191,says?,23,NULL,5,4,MOTHER,FALSE,Fraser,20,g,1989,right,right,TRUE,1,is that what he says?18,374,yeah,23,away.,1,5,CHILD,TRUE,Fraser,20,g,1989,right,right,TRUE,1,yeah and he ran away.18,211,and,23,away.,2,5,CHILD,TRUE,Fraser,20,g,1989,right,right,TRUE,1,yeah and he ran away.18,198,he,23,away.,3,5,CHILD,TRUE,Fraser,20,g,1989,right,right,TRUE,1,yeah and he ran away.18,195,ran,23,away.,4,5,CHILD,TRUE,Fraser,20,g,1989,right,right,TRUE,1,yeah and he ran away.18,169,away.,23,away.,5,5,CHILD,TRUE,Fraser,20,g,1989,right,right,TRUE,1,yeah and he ran away.18,390,then,23,NULL,1,6,MOTHER,FALSE,Fraser,20,g,1989,right,right,TRUE,1,then he runs away.18,223,he,23,NULL,2,6,MOTHER,FALSE,Fraser,20,g,1989,right,right,TRUE,1,then he runs away.18,204,runs,23,NULL,3,6,MOTHER,FALSE,Fraser,20,g,1989,right,right,TRUE,1,then he runs away.18,130,away.,23,NULL,4,6,MOTHER,FALSE,Fraser,20,g,1989,right,right,TRUE,1,then he runs away.5,832,we've,3,NA,1,1,MOTHER,FALSE,Thomas,1,u,2224,left,left,TRUE,2,"we've got to practise a little bit of drawing, Thomas."5,351,got,3,NULL,2,1,MOTHER,FALSE,Thomas,1,u,2224,left,left,TRUE,2,"we've got to practise a little bit of drawing, Thomas."5,352,to,3,NULL,3,1,MOTHER,FALSE,Thomas,1,u,2224,left,left,TRUE,2,"we've got to practise a little bit of drawing, Thomas."5,304,practise,3,NULL,4,1,MOTHER,FALSE,Thomas,1,u,2224,left,left,TRUE,2,"we've got to practise a little bit of drawing, Thomas."5,319,a,3,NULL,5,1,MOTHER,FALSE,Thomas,1,u,2224,left,left,TRUE,2,"we've got to practise a little bit of drawing, Thomas."5,368,little,3,NULL,6,1,MOTHER,FALSE,Thomas,1,u,2224,left,left,TRUE,2,"we've got to practise a little bit of drawing, Thomas."5,336,bit,3,NULL,7,1,MOTHER,FALSE,Thomas,1,u,2224,left,left,TRUE,2,"we've got to practise a little bit of drawing, Thomas."5,336,of,3,NULL,8,1,MOTHER,FALSE,Thomas,1,u,2224,left,left,TRUE,2,"we've got to practise a little bit of drawing, Thomas."5,320,"drawing,",3,NULL,9,1,MOTHER,FALSE,Thomas,1,u,2224,left,left,TRUE,2,"we've got to practise a little bit of drawing, Thomas."5,1072,Thomas.,3,NULL,10,1,MOTHER,FALSE,Thomas,1,u,2224,left,left,TRUE,2,"we've got to practise a little bit of drawing, Thomas."5,1120,"no,",3,drawed,1,2,CHILD,TRUE,Thomas,1,u,2224,left,left,TRUE,2,"no, don't want to because I've drawed some already."5,319,don't,3,drawed,2,2,CHILD,TRUE,Thomas,1,u,2224,left,left,TRUE,2,"no, don't want to because I've drawed some already."5,288,want,3,drawed,3,2,CHILD,TRUE,Thomas,1,u,2224,left,left,TRUE,2,"no, don't want to because I've drawed some already."5,272,to,3,drawed,4,2,CHILD,TRUE,Thomas,1,u,2224,left,left,TRUE,2,"no, don't want to because I've drawed some already."5,271,because,3,drawed,5,2,CHILD,TRUE,Thomas,1,u,2224,left,left,TRUE,2,"no, don't want to because I've drawed some already."5,271,I've,3,drawed,6,2,CHILD,TRUE,Thomas,1,u,2224,left,left,TRUE,2,"no, don't want to because I've drawed some already."5,319,drawed,3,drawed,7,2,CHILD,TRUE,Thomas,1,u,2224,left,left,TRUE,2,"no, don't want to because I've drawed some already."5,368,some,3,drawed,8,2,CHILD,TRUE,Thomas,1,u,2224,left,left,TRUE,2,"no, don't want to because I've drawed some already."5,464,already.,3,drawed,9,2,CHILD,TRUE,Thomas,1,u,2224,left,left,TRUE,2,"no, don't want to because I've drawed some already."5,912,no?,3,NULL,1,3,MOTHER,FALSE,Thomas,1,u,2224,left,left,TRUE,2,no?5,480,at,3,NULL,1,4,CHILD,FALSE,Thomas,1,u,2224,left,left,TRUE,2,at school.5,352,school.,3,NULL,2,4,CHILD,FALSE,Thomas,1,u,2224,left,left,TRUE,2,at school.5,526,"well,",3,NULL,1,5,MOTHER,FALSE,Thomas,1,u,2224,left,left,TRUE,2,"well, love, we're not at school now."5,288,"love,",3,NULL,2,5,MOTHER,FALSE,Thomas,1,u,2224,left,left,TRUE,2,"well, love, we're not at school now."5,287,we're,3,NULL,3,5,MOTHER,FALSE,Thomas,1,u,2224,left,left,TRUE,2,"well, love, we're not at school now."5,256,not,3,NULL,4,5,MOTHER,FALSE,Thomas,1,u,2224,left,left,TRUE,2,"well, love, we're not at school now."5,271,at,3,NULL,5,5,MOTHER,FALSE,Thomas,1,u,2224,left,left,TRUE,2,"well, love, we're not at school now."5,560,school,3,NULL,6,5,MOTHER,FALSE,Thomas,1,u,2224,left,left,TRUE,2,"well, love, we're not at school now."5,304,now.,3,NULL,7,5,MOTHER,FALSE,Thomas,1,u,2224,left,left,TRUE,2,"well, love, we're not at school now."2,672,why,4,NA,1,1,MOTHER,FALSE,Thomas,2,u,2496,left,left,TRUE,2,why are you licking your lips?2,272,are,4,NULL,2,1,MOTHER,FALSE,Thomas,2,u,2496,left,left,TRUE,2,why are you licking your lips?2,256,you,4,NULL,3,1,MOTHER,FALSE,Thomas,2,u,2496,left,left,TRUE,2,why are you licking your lips?2,240,licking,4,NULL,4,1,MOTHER,FALSE,Thomas,2,u,2496,left,left,TRUE,2,why are you licking your lips?2,272,your,4,NULL,5,1,MOTHER,FALSE,Thomas,2,u,2496,left,left,TRUE,2,why are you licking your lips?2,432,lips?,4,NULL,6,1,MOTHER,FALSE,Thomas,2,u,2496,left,left,TRUE,2,why are you licking your lips?2,559,because,4,eated,1,2,CHILD,TRUE,Thomas,2,u,2496,left,left,TRUE,2,because I eated some of that.2,304,I,4,eated,2,2,CHILD,TRUE,Thomas,2,u,2496,left,left,TRUE,2,because I eated some of that.2,256,eated,4,eated,3,2,CHILD,TRUE,Thomas,2,u,2496,left,left,TRUE,2,because I eated some of that.2,335,some,4,eated,4,2,CHILD,TRUE,Thomas,2,u,2496,left,left,TRUE,2,because I eated some of that.2,337,of,4,eated,5,2,CHILD,TRUE,Thomas,2,u,2496,left,left,TRUE,2,because I eated some of that.2,463,that.,4,eated,6,2,CHILD,TRUE,Thomas,2,u,2496,left,left,TRUE,2,because I eated some of that.2,432,have,4,NULL,1,3,MOTHER,FALSE,Thomas,2,u,2496,left,left,TRUE,2,have you?2,352,you?,4,NULL,2,3,MOTHER,FALSE,Thomas,2,u,2496,left,left,TRUE,2,have you?2,480,yum.,4,NULL,1,4,CHILD,FALSE,Thomas,2,u,2496,left,left,TRUE,2,yum.2,848,we've,4,NULL,1,5,MOTHER,FALSE,Thomas,2,u,2496,left,left,TRUE,2,we've got to keep these buns upright otherwise the icing all drops off onto the floor.2,240,got,4,NULL,2,5,MOTHER,FALSE,Thomas,2,u,2496,left,left,TRUE,2,we've got to keep these buns upright otherwise the icing all drops off onto the floor.2,224,to,4,NULL,3,5,MOTHER,FALSE,Thomas,2,u,2496,left,left,TRUE,2,we've got to keep these buns upright otherwise the icing all drops off onto the floor.2,176,keep,4,NULL,4,5,MOTHER,FALSE,Thomas,2,u,2496,left,left,TRUE,2,we've got to keep these buns upright otherwise the icing all drops off onto the floor.2,191,these,4,NULL,5,5,MOTHER,FALSE,Thomas,2,u,2496,left,left,TRUE,2,we've got to keep these buns upright otherwise the icing all drops off onto the floor.2,176,buns,4,NULL,6,5,MOTHER,FALSE,Thomas,2,u,2496,left,left,TRUE,2,we've got to keep these buns upright otherwise the icing all drops off onto the floor.2,175,upright,4,NULL,7,5,MOTHER,FALSE,Thomas,2,u,2496,left,left,TRUE,2,we've got to keep these buns upright otherwise the icing all drops off onto the floor.2,688,otherwise,4,NULL,8,5,MOTHER,FALSE,Thomas,2,u,2496,left,left,TRUE,2,we've got to keep these buns upright otherwise the icing all drops off onto the floor.2,319,the,4,NULL,9,5,MOTHER,FALSE,Thomas,2,u,2496,left,left,TRUE,2,we've got to keep these buns upright otherwise the icing all drops off onto the floor.2,240,icing,4,NULL,10,5,MOTHER,FALSE,Thomas,2,u,2496,left,left,TRUE,2,we've got to keep these buns upright otherwise the icing all drops off onto the floor.2,304,all,4,NULL,11,5,MOTHER,FALSE,Thomas,2,u,2496,left,left,TRUE,2,we've got to keep these buns upright otherwise the icing all drops off onto the floor.2,368,drops,4,NULL,12,5,MOTHER,FALSE,Thomas,2,u,2496,left,left,TRUE,2,we've got to keep these buns upright otherwise the icing all drops off onto the floor.2,336,off,4,NULL,13,5,MOTHER,FALSE,Thomas,2,u,2496,left,left,TRUE,2,we've got to keep these buns upright otherwise the icing all drops off onto the floor.2,367,onto,4,NULL,14,5,MOTHER,FALSE,Thomas,2,u,2496,left,left,TRUE,2,we've got to keep these buns upright otherwise the icing all drops off onto the floor.2,320,the,4,NULL,15,5,MOTHER,FALSE,Thomas,2,u,2496,left,left,TRUE,2,we've got to keep these buns upright otherwise the icing all drops off onto the floor.2,431,floor.,4,NULL,16,5,MOTHER,FALSE,Thomas,2,u,2496,left,left,TRUE,2,we've got to keep these buns upright otherwise the icing all drops off onto the floor.2,703,okay.,4,NULL,1,6,CHILD,FALSE,Thomas,2,u,2496,left,left,TRUE,2,okay.10,592,what,5,NA,1,1,MOTHER,FALSE,Thomas,3,g,2032,right,right,TRUE,2,"what happened to your drink of milk, Thomas?"10,225,happened,5,NULL,2,1,MOTHER,FALSE,Thomas,3,g,2032,right,right,TRUE,2,"what happened to your drink of milk, Thomas?"10,272,to,5,NULL,3,1,MOTHER,FALSE,Thomas,3,g,2032,right,right,TRUE,2,"what happened to your drink of milk, Thomas?"10,192,your,5,NULL,4,1,MOTHER,FALSE,Thomas,3,g,2032,right,right,TRUE,2,"what happened to your drink of milk, Thomas?"10,224,drink,5,NULL,5,1,MOTHER,FALSE,Thomas,3,g,2032,right,right,TRUE,2,"what happened to your drink of milk, Thomas?"10,223,of,5,NULL,6,1,MOTHER,FALSE,Thomas,3,g,2032,right,right,TRUE,2,"what happened to your drink of milk, Thomas?"10,335,"milk,",5,NULL,7,1,MOTHER,FALSE,Thomas,3,g,2032,right,right,TRUE,2,"what happened to your drink of milk, Thomas?"10,256,Thomas?,5,NULL,8,1,MOTHER,FALSE,Thomas,3,g,2032,right,right,TRUE,2,"what happened to your drink of milk, Thomas?"10,464,I,5,drank,1,2,CHILD,TRUE,Thomas,3,g,2032,right,right,TRUE,2,I drank it all.10,320,drank,5,drank,2,2,CHILD,TRUE,Thomas,3,g,2032,right,right,TRUE,2,I drank it all.10,288,it,5,drank,3,2,CHILD,TRUE,Thomas,3,g,2032,right,right,TRUE,2,I drank it all.10,240,all.,5,drank,4,2,CHILD,TRUE,Thomas,3,g,2032,right,right,TRUE,2,I drank it all.10,431,I,5,NULL,1,3,MOTHER,FALSE,Thomas,3,g,2032,right,right,TRUE,2,I know but what happened to the bottle?10,288,know,5,NULL,2,3,MOTHER,FALSE,Thomas,3,g,2032,right,right,TRUE,2,I know but what happened to the bottle?10,208,but,5,NULL,3,3,MOTHER,FALSE,Thomas,3,g,2032,right,right,TRUE,2,I know but what happened to the bottle?10,256,what,5,NULL,4,3,MOTHER,FALSE,Thomas,3,g,2032,right,right,TRUE,2,I know but what happened to the bottle?10,480,happened,5,NULL,5,3,MOTHER,FALSE,Thomas,3,g,2032,right,right,TRUE,2,I know but what happened to the bottle?10,239,to,5,NULL,6,3,MOTHER,FALSE,Thomas,3,g,2032,right,right,TRUE,2,I know but what happened to the bottle?10,273,the,5,NULL,7,3,MOTHER,FALSE,Thomas,3,g,2032,right,right,TRUE,2,I know but what happened to the bottle?10,414,bottle?,5,NULL,8,3,MOTHER,FALSE,Thomas,3,g,2032,right,right,TRUE,2,I know but what happened to the bottle?10,448,"okay,",5,NULL,1,4,CHILD,FALSE,Thomas,3,g,2032,right,right,TRUE,2,"okay, I'll get it."10,318,I'll,5,NULL,2,4,CHILD,FALSE,Thomas,3,g,2032,right,right,TRUE,2,"okay, I'll get it."10,240,get,5,NULL,3,4,CHILD,FALSE,Thomas,3,g,2032,right,right,TRUE,2,"okay, I'll get it."10,432,it.,5,NULL,4,4,CHILD,FALSE,Thomas,3,g,2032,right,right,TRUE,2,"okay, I'll get it."10,416,have,5,NULL,1,5,MOTHER,FALSE,Thomas,3,g,2032,right,right,TRUE,2,have you hidden it behind there?10,288,you,5,NULL,2,5,MOTHER,FALSE,Thomas,3,g,2032,right,right,TRUE,2,have you hidden it behind there?10,255,hidden,5,NULL,3,5,MOTHER,FALSE,Thomas,3,g,2032,right,right,TRUE,2,have you hidden it behind there?10,272,it,5,NULL,4,5,MOTHER,FALSE,Thomas,3,g,2032,right,right,TRUE,2,have you hidden it behind there?10,287,behind,5,NULL,5,5,MOTHER,FALSE,Thomas,3,g,2032,right,right,TRUE,2,have you hidden it behind there?10,367,there?,5,NULL,6,5,MOTHER,FALSE,Thomas,3,g,2032,right,right,TRUE,2,have you hidden it behind there?3,879,"no,",6,NA,1,1,MOTHER,FALSE,Thomas,4,u,2239,right,right,TRUE,2,"no, no, no."3,272,"no,",6,NULL,2,1,MOTHER,FALSE,Thomas,4,u,2239,right,right,TRUE,2,"no, no, no."3,273,no.,6,NULL,3,1,MOTHER,FALSE,Thomas,4,u,2239,right,right,TRUE,2,"no, no, no."3,464,if,6,runned,1,2,CHILD,TRUE,Thomas,4,u,2239,right,right,TRUE,2,if I runned away what would happen?3,240,I,6,runned,2,2,CHILD,TRUE,Thomas,4,u,2239,right,right,TRUE,2,if I runned away what would happen?3,224,runned,6,runned,3,2,CHILD,TRUE,Thomas,4,u,2239,right,right,TRUE,2,if I runned away what would happen?3,207,away,6,runned,4,2,CHILD,TRUE,Thomas,4,u,2239,right,right,TRUE,2,if I runned away what would happen?3,337,what,6,runned,5,2,CHILD,TRUE,Thomas,4,u,2239,right,right,TRUE,2,if I runned away what would happen?3,224,would,6,runned,6,2,CHILD,TRUE,Thomas,4,u,2239,right,right,TRUE,2,if I runned away what would happen?3,480,happen?,6,runned,7,2,CHILD,TRUE,Thomas,4,u,2239,right,right,TRUE,2,if I runned away what would happen?3,735,"now,",6,NULL,1,3,MOTHER,FALSE,Thomas,4,u,2239,right,right,TRUE,2,"now, if you ran away and let go it would come flying back and hit me wouldn't it?"3,288,if,6,NULL,2,3,MOTHER,FALSE,Thomas,4,u,2239,right,right,TRUE,2,"now, if you ran away and let go it would come flying back and hit me wouldn't it?"3,239,you,6,NULL,3,3,MOTHER,FALSE,Thomas,4,u,2239,right,right,TRUE,2,"now, if you ran away and let go it would come flying back and hit me wouldn't it?"3,224,ran,6,NULL,4,3,MOTHER,FALSE,Thomas,4,u,2239,right,right,TRUE,2,"now, if you ran away and let go it would come flying back and hit me wouldn't it?"3,256,away,6,NULL,5,3,MOTHER,FALSE,Thomas,4,u,2239,right,right,TRUE,2,"now, if you ran away and let go it would come flying back and hit me wouldn't it?"3,240,and,6,NULL,6,3,MOTHER,FALSE,Thomas,4,u,2239,right,right,TRUE,2,"now, if you ran away and let go it would come flying back and hit me wouldn't it?"3,207,let,6,NULL,7,3,MOTHER,FALSE,Thomas,4,u,2239,right,right,TRUE,2,"now, if you ran away and let go it would come flying back and hit me wouldn't it?"3,289,go,6,NULL,8,3,MOTHER,FALSE,Thomas,4,u,2239,right,right,TRUE,2,"now, if you ran away and let go it would come flying back and hit me wouldn't it?"3,240,it,6,NULL,9,3,MOTHER,FALSE,Thomas,4,u,2239,right,right,TRUE,2,"now, if you ran away and let go it would come flying back and hit me wouldn't it?"3,400,would,6,NULL,10,3,MOTHER,FALSE,Thomas,4,u,2239,right,right,TRUE,2,"now, if you ran away and let go it would come flying back and hit me wouldn't it?"3,271,come,6,NULL,11,3,MOTHER,FALSE,Thomas,4,u,2239,right,right,TRUE,2,"now, if you ran away and let go it would come flying back and hit me wouldn't it?"3,241,flying,6,NULL,12,3,MOTHER,FALSE,Thomas,4,u,2239,right,right,TRUE,2,"now, if you ran away and let go it would come flying back and hit me wouldn't it?"3,254,back,6,NULL,13,3,MOTHER,FALSE,Thomas,4,u,2239,right,right,TRUE,2,"now, if you ran away and let go it would come flying back and hit me wouldn't it?"3,289,and,6,NULL,14,3,MOTHER,FALSE,Thomas,4,u,2239,right,right,TRUE,2,"now, if you ran away and let go it would come flying back and hit me wouldn't it?"3,304,hit,6,NULL,15,3,MOTHER,FALSE,Thomas,4,u,2239,right,right,TRUE,2,"now, if you ran away and let go it would come flying back and hit me wouldn't it?"3,272,me,6,NULL,16,3,MOTHER,FALSE,Thomas,4,u,2239,right,right,TRUE,2,"now, if you ran away and let go it would come flying back and hit me wouldn't it?"3,367,wouldn't,6,NULL,17,3,MOTHER,FALSE,Thomas,4,u,2239,right,right,TRUE,2,"now, if you ran away and let go it would come flying back and hit me wouldn't it?"3,608,it?,6,NULL,18,3,MOTHER,FALSE,Thomas,4,u,2239,right,right,TRUE,2,"now, if you ran away and let go it would come flying back and hit me wouldn't it?"3,480,"bang,",6,NULL,1,4,CHILD,FALSE,Thomas,4,u,2239,right,right,TRUE,2,"bang, bang, bang."3,336,"bang,",6,NULL,2,4,CHILD,FALSE,Thomas,4,u,2239,right,right,TRUE,2,"bang, bang, bang."3,303,bang.,6,NULL,3,4,CHILD,FALSE,Thomas,4,u,2239,right,right,TRUE,2,"bang, bang, bang."3,479,"no,",6,NULL,1,5,MOTHER,FALSE,Thomas,4,u,2239,right,right,TRUE,2,"no, bring it back to me, Thomas, please."3,287,bring,6,NULL,2,5,MOTHER,FALSE,Thomas,4,u,2239,right,right,TRUE,2,"no, bring it back to me, Thomas, please."3,241,it,6,NULL,3,5,MOTHER,FALSE,Thomas,4,u,2239,right,right,TRUE,2,"no, bring it back to me, Thomas, please."3,272,back,6,NULL,4,5,MOTHER,FALSE,Thomas,4,u,2239,right,right,TRUE,2,"no, bring it back to me, Thomas, please."3,239,to,6,NULL,5,5,MOTHER,FALSE,Thomas,4,u,2239,right,right,TRUE,2,"no, bring it back to me, Thomas, please."3,257,"me,",6,NULL,6,5,MOTHER,FALSE,Thomas,4,u,2239,right,right,TRUE,2,"no, bring it back to me, Thomas, please."3,223,"Thomas,",6,NULL,7,5,MOTHER,FALSE,Thomas,4,u,2239,right,right,TRUE,2,"no, bring it back to me, Thomas, please."3,496,please.,6,NULL,8,5,MOTHER,FALSE,Thomas,4,u,2239,right,right,TRUE,2,"no, bring it back to me, Thomas, please."3,575,I'm,6,NULL,1,6,CHILD,FALSE,Thomas,4,u,2239,right,right,TRUE,2,"I'm just putting out the fire, psst, and the hose is here."3,256,just,6,NULL,2,6,CHILD,FALSE,Thomas,4,u,2239,right,right,TRUE,2,"I'm just putting out the fire, psst, and the hose is here."3,271,putting,6,NULL,3,6,CHILD,FALSE,Thomas,4,u,2239,right,right,TRUE,2,"I'm just putting out the fire, psst, and the hose is here."3,224,out,6,NULL,4,6,CHILD,FALSE,Thomas,4,u,2239,right,right,TRUE,2,"I'm just putting out the fire, psst, and the hose is here."3,273,the,6,NULL,5,6,CHILD,FALSE,Thomas,4,u,2239,right,right,TRUE,2,"I'm just putting out the fire, psst, and the hose is here."3,271,"fire,",6,NULL,6,6,CHILD,FALSE,Thomas,4,u,2239,right,right,TRUE,2,"I'm just putting out the fire, psst, and the hose is here."3,288,"psst,",6,NULL,7,6,CHILD,FALSE,Thomas,4,u,2239,right,right,TRUE,2,"I'm just putting out the fire, psst, and the hose is here."3,256,and,6,NULL,8,6,CHILD,FALSE,Thomas,4,u,2239,right,right,TRUE,2,"I'm just putting out the fire, psst, and the hose is here."3,304,the,6,NULL,9,6,CHILD,FALSE,Thomas,4,u,2239,right,right,TRUE,2,"I'm just putting out the fire, psst, and the hose is here."3,321,hose,6,NULL,10,6,CHILD,FALSE,Thomas,4,u,2239,right,right,TRUE,2,"I'm just putting out the fire, psst, and the hose is here."3,336,is,6,NULL,11,6,CHILD,FALSE,Thomas,4,u,2239,right,right,TRUE,2,"I'm just putting out the fire, psst, and the hose is here."3,495,here.,6,NULL,12,6,CHILD,FALSE,Thomas,4,u,2239,right,right,TRUE,2,"I'm just putting out the fire, psst, and the hose is here."3,465,I,6,NULL,1,7,MOTHER,FALSE,Thomas,4,u,2239,right,right,TRUE,2,I thought you would turn it into a hosepipe because it's a bit like a curly cable isn't it?3,271,thought,6,NULL,2,7,MOTHER,FALSE,Thomas,4,u,2239,right,right,TRUE,2,I thought you would turn it into a hosepipe because it's a bit like a curly cable isn't it?3,272,you,6,NULL,3,7,MOTHER,FALSE,Thomas,4,u,2239,right,right,TRUE,2,I thought you would turn it into a hosepipe because it's a bit like a curly cable isn't it?3,240,would,6,NULL,4,7,MOTHER,FALSE,Thomas,4,u,2239,right,right,TRUE,2,I thought you would turn it into a hosepipe because it's a bit like a curly cable isn't it?3,224,turn,6,NULL,5,7,MOTHER,FALSE,Thomas,4,u,2239,right,right,TRUE,2,I thought you would turn it into a hosepipe because it's a bit like a curly cable isn't it?3,256,it,6,NULL,6,7,MOTHER,FALSE,Thomas,4,u,2239,right,right,TRUE,2,I thought you would turn it into a hosepipe because it's a bit like a curly cable isn't it?3,255,into,6,NULL,7,7,MOTHER,FALSE,Thomas,4,u,2239,right,right,TRUE,2,I thought you would turn it into a hosepipe because it's a bit like a curly cable isn't it?3,239,a,6,NULL,8,7,MOTHER,FALSE,Thomas,4,u,2239,right,right,TRUE,2,I thought you would turn it into a hosepipe because it's a bit like a curly cable isn't it?3,256,hosepipe,6,NULL,9,7,MOTHER,FALSE,Thomas,4,u,2239,right,right,TRUE,2,I thought you would turn it into a hosepipe because it's a bit like a curly cable isn't it?3,273,because,6,NULL,10,7,MOTHER,FALSE,Thomas,4,u,2239,right,right,TRUE,2,I thought you would turn it into a hosepipe because it's a bit like a curly cable isn't it?3,351,it's,6,NULL,11,7,MOTHER,FALSE,Thomas,4,u,2239,right,right,TRUE,2,I thought you would turn it into a hosepipe because it's a bit like a curly cable isn't it?3,256,a,6,NULL,12,7,MOTHER,FALSE,Thomas,4,u,2239,right,right,TRUE,2,I thought you would turn it into a hosepipe because it's a bit like a curly cable isn't it?3,272,bit,6,NULL,13,7,MOTHER,FALSE,Thomas,4,u,2239,right,right,TRUE,2,I thought you would turn it into a hosepipe because it's a bit like a curly cable isn't it?3,222,like,6,NULL,14,7,MOTHER,FALSE,Thomas,4,u,2239,right,right,TRUE,2,I thought you would turn it into a hosepipe because it's a bit like a curly cable isn't it?3,240,a,6,NULL,15,7,MOTHER,FALSE,Thomas,4,u,2239,right,right,TRUE,2,I thought you would turn it into a hosepipe because it's a bit like a curly cable isn't it?3,256,curly,6,NULL,16,7,MOTHER,FALSE,Thomas,4,u,2239,right,right,TRUE,2,I thought you would turn it into a hosepipe because it's a bit like a curly cable isn't it?3,336,cable,6,NULL,17,7,MOTHER,FALSE,Thomas,4,u,2239,right,right,TRUE,2,I thought you would turn it into a hosepipe because it's a bit like a curly cable isn't it?3,304,isn't,6,NULL,18,7,MOTHER,FALSE,Thomas,4,u,2239,right,right,TRUE,2,I thought you would turn it into a hosepipe because it's a bit like a curly cable isn't it?3,400,it?,6,NULL,19,7,MOTHER,FALSE,Thomas,4,u,2239,right,right,TRUE,2,I thought you would turn it into a hosepipe because it's a bit like a curly cable isn't it?1,609,you,7,NA,1,1,MOTHER,FALSE,Thomas,5,g,2672,left,left,TRUE,2,you did it quick so I didn't tread on it.1,239,did,7,NULL,2,1,MOTHER,FALSE,Thomas,5,g,2672,left,left,TRUE,2,you did it quick so I didn't tread on it.1,240,it,7,NULL,3,1,MOTHER,FALSE,Thomas,5,g,2672,left,left,TRUE,2,you did it quick so I didn't tread on it.1,240,quick,7,NULL,4,1,MOTHER,FALSE,Thomas,5,g,2672,left,left,TRUE,2,you did it quick so I didn't tread on it.1,224,so,7,NULL,5,1,MOTHER,FALSE,Thomas,5,g,2672,left,left,TRUE,2,you did it quick so I didn't tread on it.1,271,I,7,NULL,6,1,MOTHER,FALSE,Thomas,5,g,2672,left,left,TRUE,2,you did it quick so I didn't tread on it.1,223,didn't,7,NULL,7,1,MOTHER,FALSE,Thomas,5,g,2672,left,left,TRUE,2,you did it quick so I didn't tread on it.1,272,tread,7,NULL,8,1,MOTHER,FALSE,Thomas,5,g,2672,left,left,TRUE,2,you did it quick so I didn't tread on it.1,337,on,7,NULL,9,1,MOTHER,FALSE,Thomas,5,g,2672,left,left,TRUE,2,you did it quick so I didn't tread on it.